"trial_type","trial_index","time_elapsed","internal_node_id","subject_id","success","timeout","failed_images","failed_audio","failed_video","rt","stimulus","response","view_history","question_order","phase","trial_name","trial_num","key_selected","person_selected","first_product","reward1","second_product","reward2","left_person","right_person","prob_product1","prob_product2","prob_product3","prob_product4","prob_product5","counterbalance"
"pavlovia","0","1669","0.0-0.0","662f798279ec5f7604eaaaa0","","","","","","","","","","","","","","","","","","","","","","","","","","",""
"preload","1","85421","0.0-1.0","662f798279ec5f7604eaaaa0","true","false","[]","[]","[]","","","","","","","","","","","","","","","","","","","","","",""
"html-button-response","2","100681","0.0-2.0","662f798279ec5f7604eaaaa0","","","","","","15244","<h2><b>Consent to participate in a research:</b></h2><p><strong>You will be paid only after participating in each of the 4 days (including today).</p>","1","","","","","","","","","","","","","","","","","","",""
"fullscreen","3","104116","0.0-3.0","662f798279ec5f7604eaaaa0","true","","","","","","","","","","","","","","","","","","","","","","","","","",""
"instructions","4","288732","0.0-4.0-0.0","662f798279ec5f7604eaaaa0","","","","","","184612","","","[{""page_index"":0,""viewing_time"":4431},{""page_index"":1,""viewing_time"":3934},{""page_index"":2,""viewing_time"":4148},{""page_index"":3,""viewing_time"":1729},{""page_index"":4,""viewing_time"":17817},{""page_index"":5,""viewing_time"":16963},{""page_index"":6,""viewing_time"":6792},{""page_index"":7,""viewing_time"":11592},{""page_index"":8,""viewing_time"":9209},{""page_index"":9,""viewing_time"":8050},{""page_index"":10,""viewing_time"":10178},{""page_index"":11,""viewing_time"":10904},{""page_index"":12,""viewing_time"":3232},{""page_index"":13,""viewing_time"":6865},{""page_index"":14,""viewing_time"":6677},{""page_index"":15,""viewing_time"":4851},{""page_index"":16,""viewing_time"":15492},{""page_index"":17,""viewing_time"":3487},{""page_index"":18,""viewing_time"":7623},{""page_index"":19,""viewing_time"":6152},{""page_index"":20,""viewing_time"":12293},{""page_index"":21,""viewing_time"":9863},{""page_index"":22,""viewing_time"":2330}]","","","","","","","","","","","","","","","","","",""
"survey-multi-choice","5","392432","0.0-4.0-1.0","662f798279ec5f7604eaaaa0","","","","","","103695","","{""number_persons"":""5"",""number_candidates"":""2"",""number_products"":""2"",""choose_candidate"":""Press the 'S' or 'K' key with your LEFT or RIGHT hand"",""transported_product"":""False, each delivery person can only deliver two products"",""product_person"":""False, the book has the same demand no matter who is delivering it"",""value_change"":""True, as in real markets the demand may slowly change"",""game_goal"":""The goal is to choose the best I can and earn as much bonus money as I can"",""independence"":""False, each product has its own demand in the market"",""location"":""The demand for the products is the same regardless of whether the chosen delivery person appears on the left or on the right""}","","[0,1,2,3,4,5,6,7,8,9]","","","","","","","","","","","","","","","","",""
"instructions","6","415930","0.0-5.0","662f798279ec5f7604eaaaa0","","","","","","23493","","","[{""page_index"":0,""viewing_time"":2322},{""page_index"":1,""viewing_time"":7850},{""page_index"":2,""viewing_time"":3085},{""page_index"":3,""viewing_time"":5674},{""page_index"":4,""viewing_time"":2361},{""page_index"":5,""viewing_time"":2201}]","","","","","","","","","","","","","","","","","",""
"html-keyboard-response","7","418629","0.0-6.0","662f798279ec5f7604eaaaa0","","","","","","2697","<div>We will now do a few practice trials. <br> Please be ready with your fingers on <b>s</b> and <b>k</b><br><br> <img class=keyboard src='images/examples/keyboard.png'>  <br><br> <b> Press any key to begin</b></div>","s","","","","","","","","","","","","","","","","","","",""
"html-keyboard-response","8","422520","0.0-7.0-0.0","662f798279ec5f7604eaaaa0","","","","","","2874","<img class=left_person src='images/persons/person1.jpg'><img class=right_person src='images/persons/person5.jpg'><div class=""fixation"">+</div>","k","","","practice","choice","0","","","","","","","","","","","","","",""
"html-keyboard-response","9","423288","0.0-7.0-1.0","662f798279ec5f7604eaaaa0","","","","","","null","<img class=right_person src='images/persons/person5.jpg'><div class=""fixation"">+</div>","null","","","practice","show_choice","0","1","4","","","","","","","","","","","",""
"html-keyboard-response","10","424055","0.0-7.0-2.0","662f798279ec5f7604eaaaa0","","","","","","null","<img class=right_person src='images/persons/person5.jpg'><img class=product src='images/products/bicycle.jpg'><div class=""fixation"">+</div>","null","","","practice","show_product1","0","","","0","","","","","","","","","","",""
"html-keyboard-response","11","425063","0.0-7.0-3.0","662f798279ec5f7604eaaaa0","","","","","","null","<img class=right_person src='images/persons/person5.jpg'><img class=reward src='images/one_coin.png'><img class=product src='images/products/bicycle.jpg'>","null","","","practice","show_reward1","0","","","0","1","","","","","","","","","",""
"html-keyboard-response","12","425827","0.0-7.0-4.0","662f798279ec5f7604eaaaa0","","","","","","null","<img class=right_person src='images/persons/person5.jpg'><div class=""fixation"">+</div>","null","","","practice","show_choice","0","1","4","","","","","","","","","","","",""
"html-keyboard-response","13","426591","0.0-7.0-5.0","662f798279ec5f7604eaaaa0","","","","","","null","<img class=right_person src='images/persons/person5.jpg'><img class=product src='images/products/printer.jpg'><div class=""fixation"">+</div>","null","","","practice","show_product2","0","","","","","4","","","","","","","","",""
"html-keyboard-response","14","427601","0.0-7.0-6.0","662f798279ec5f7604eaaaa0","","","","","","null","<img class=right_person src='images/persons/person5.jpg'><img class=reward src='images/zero_coins.png'><img class=product src='images/products/printer.jpg'>","null","","","practice","show_reward2","0","1","4","0","1","4","0","","","","","","","",""
"html-keyboard-response","15","429767","0.0-7.0-0.1","662f798279ec5f7604eaaaa0","","","","","","2008","<img class=left_person src='images/persons/person3.jpg'><img class=right_person src='images/persons/person2.jpg'><div class=""fixation"">+</div>","s","","","practice","choice","1","","","","","","","","","","","","","",""
"html-keyboard-response","16","430525","0.0-7.0-1.1","662f798279ec5f7604eaaaa0","","","","","","null","<img class=left_person src='images/persons/person3.jpg'><div class=""fixation"">+</div>","null","","","practice","show_choice","1","0","2","","","","","","","","","","","",""
"html-keyboard-response","17","431289","0.0-7.0-2.1","662f798279ec5f7604eaaaa0","","","","","","null","<img class=left_person src='images/persons/person3.jpg'><img class=product src='images/products/cake.jpg'><div class=""fixation"">+</div>","null","","","practice","show_product1","1","","","2","","","","","","","","","","",""
"html-keyboard-response","18","432303","0.0-7.0-3.1","662f798279ec5f7604eaaaa0","","","","","","null","<img class=left_person src='images/persons/person3.jpg'><img class=reward src='images/zero_coins.png'><img class=product src='images/products/cake.jpg'>","null","","","practice","show_reward1","1","","","2","0","","","","","","","","","",""
"html-keyboard-response","19","433065","0.0-7.0-4.1","662f798279ec5f7604eaaaa0","","","","","","null","<img class=left_person src='images/persons/person3.jpg'><div class=""fixation"">+</div>","null","","","practice","show_choice","1","0","2","","","","","","","","","","","",""
"html-keyboard-response","20","433831","0.0-7.0-5.1","662f798279ec5f7604eaaaa0","","","","","","null","<img class=left_person src='images/persons/person3.jpg'><img class=product src='images/products/necklace.jpg'><div class=""fixation"">+</div>","null","","","practice","show_product2","1","","","","","3","","","","","","","","",""
"html-keyboard-response","21","434845","0.0-7.0-6.1","662f798279ec5f7604eaaaa0","","","","","","null","<img class=left_person src='images/persons/person3.jpg'><img class=reward src='images/one_coin.png'><img class=product src='images/products/necklace.jpg'>","null","","","practice","show_reward2","1","0","2","2","0","3","1","","","","","","","",""
"html-keyboard-response","22","437900","0.0-7.0-0.2","662f798279ec5f7604eaaaa0","","","","","","2898","<img class=left_person src='images/persons/person3.jpg'><img class=right_person src='images/persons/person4.jpg'><div class=""fixation"">+</div>","k","","","practice","choice","2","","","","","","","","","","","","","",""
"html-keyboard-response","23","438662","0.0-7.0-1.2","662f798279ec5f7604eaaaa0","","","","","","null","<img class=right_person src='images/persons/person4.jpg'><div class=""fixation"">+</div>","null","","","practice","show_choice","2","1","3","","","","","","","","","","","",""
"html-keyboard-response","24","439428","0.0-7.0-2.2","662f798279ec5f7604eaaaa0","","","","","","null","<img class=right_person src='images/persons/person4.jpg'><img class=product src='images/products/necklace.jpg'><div class=""fixation"">+</div>","null","","","practice","show_product1","2","","","3","","","","","","","","","","",""
"html-keyboard-response","25","440444","0.0-7.0-3.2","662f798279ec5f7604eaaaa0","","","","","","null","<img class=right_person src='images/persons/person4.jpg'><img class=reward src='images/one_coin.png'><img class=product src='images/products/necklace.jpg'>","null","","","practice","show_reward1","2","","","3","1","","","","","","","","","",""
"html-keyboard-response","26","441205","0.0-7.0-4.2","662f798279ec5f7604eaaaa0","","","","","","null","<img class=right_person src='images/persons/person4.jpg'><div class=""fixation"">+</div>","null","","","practice","show_choice","2","1","3","","","","","","","","","","","",""
"html-keyboard-response","27","441970","0.0-7.0-5.2","662f798279ec5f7604eaaaa0","","","","","","null","<img class=right_person src='images/persons/person4.jpg'><img class=product src='images/products/printer.jpg'><div class=""fixation"">+</div>","null","","","practice","show_product2","2","","","","","4","","","","","","","","",""
"html-keyboard-response","28","442984","0.0-7.0-6.2","662f798279ec5f7604eaaaa0","","","","","","null","<img class=right_person src='images/persons/person4.jpg'><img class=reward src='images/zero_coins.png'><img class=product src='images/products/printer.jpg'>","null","","","practice","show_reward2","2","1","3","3","1","4","0","","","","","","","",""
"html-keyboard-response","29","445467","0.0-7.0-0.3","662f798279ec5f7604eaaaa0","","","","","","2325","<img class=left_person src='images/persons/person2.jpg'><img class=right_person src='images/persons/person3.jpg'><div class=""fixation"">+</div>","k","","","practice","choice","3","","","","","","","","","","","","","",""
"html-keyboard-response","30","446231","0.0-7.0-1.3","662f798279ec5f7604eaaaa0","","","","","","null","<img class=right_person src='images/persons/person3.jpg'><div class=""fixation"">+</div>","null","","","practice","show_choice","3","1","2","","","","","","","","","","","",""
"html-keyboard-response","31","446998","0.0-7.0-2.3","662f798279ec5f7604eaaaa0","","","","","","null","<img class=right_person src='images/persons/person3.jpg'><img class=product src='images/products/necklace.jpg'><div class=""fixation"">+</div>","null","","","practice","show_product1","3","","","3","","","","","","","","","","",""
"html-keyboard-response","32","448008","0.0-7.0-3.3","662f798279ec5f7604eaaaa0","","","","","","null","<img class=right_person src='images/persons/person3.jpg'><img class=reward src='images/one_coin.png'><img class=product src='images/products/necklace.jpg'>","null","","","practice","show_reward1","3","","","3","1","","","","","","","","","",""
"html-keyboard-response","33","448772","0.0-7.0-4.3","662f798279ec5f7604eaaaa0","","","","","","null","<img class=right_person src='images/persons/person3.jpg'><div class=""fixation"">+</div>","null","","","practice","show_choice","3","1","2","","","","","","","","","","","",""
"html-keyboard-response","34","449534","0.0-7.0-5.3","662f798279ec5f7604eaaaa0","","","","","","null","<img class=right_person src='images/persons/person3.jpg'><img class=product src='images/products/cake.jpg'><div class=""fixation"">+</div>","null","","","practice","show_product2","3","","","","","2","","","","","","","","",""
"html-keyboard-response","35","450546","0.0-7.0-6.3","662f798279ec5f7604eaaaa0","","","","","","null","<img class=right_person src='images/persons/person3.jpg'><img class=reward src='images/zero_coins.png'><img class=product src='images/products/cake.jpg'>","null","","","practice","show_reward2","3","1","2","3","1","2","0","","","","","","","",""
"html-keyboard-response","36","454969","0.0-7.0-0.4","662f798279ec5f7604eaaaa0","","","","","","4266","<img class=left_person src='images/persons/person3.jpg'><img class=right_person src='images/persons/person4.jpg'><div class=""fixation"">+</div>","k","","","practice","choice","4","","","","","","","","","","","","","",""
"html-keyboard-response","37","455734","0.0-7.0-1.4","662f798279ec5f7604eaaaa0","","","","","","null","<img class=right_person src='images/persons/person4.jpg'><div class=""fixation"">+</div>","null","","","practice","show_choice","4","1","3","","","","","","","","","","","",""
"html-keyboard-response","38","456501","0.0-7.0-2.4","662f798279ec5f7604eaaaa0","","","","","","null","<img class=right_person src='images/persons/person4.jpg'><img class=product src='images/products/necklace.jpg'><div class=""fixation"">+</div>","null","","","practice","show_product1","4","","","3","","","","","","","","","","",""
"html-keyboard-response","39","457513","0.0-7.0-3.4","662f798279ec5f7604eaaaa0","","","","","","null","<img class=right_person src='images/persons/person4.jpg'><img class=reward src='images/zero_coins.png'><img class=product src='images/products/necklace.jpg'>","null","","","practice","show_reward1","4","","","3","0","","","","","","","","","",""
"html-keyboard-response","40","458277","0.0-7.0-4.4","662f798279ec5f7604eaaaa0","","","","","","null","<img class=right_person src='images/persons/person4.jpg'><div class=""fixation"">+</div>","null","","","practice","show_choice","4","1","3","","","","","","","","","","","",""
"html-keyboard-response","41","459042","0.0-7.0-5.4","662f798279ec5f7604eaaaa0","","","","","","null","<img class=right_person src='images/persons/person4.jpg'><img class=product src='images/products/printer.jpg'><div class=""fixation"">+</div>","null","","","practice","show_product2","4","","","","","4","","","","","","","","",""
"html-keyboard-response","42","460053","0.0-7.0-6.4","662f798279ec5f7604eaaaa0","","","","","","null","<img class=right_person src='images/persons/person4.jpg'><img class=reward src='images/one_coin.png'><img class=product src='images/products/printer.jpg'>","null","","","practice","show_reward2","4","1","3","3","0","4","1","","","","","","","",""
"html-keyboard-response","43","464423","0.0-7.0-0.5","662f798279ec5f7604eaaaa0","","","","","","4213","<img class=left_person src='images/persons/person3.jpg'><img class=right_person src='images/persons/person4.jpg'><div class=""fixation"">+</div>","s","","","practice","choice","5","","","","","","","","","","","","","",""
"html-keyboard-response","44","465182","0.0-7.0-1.5","662f798279ec5f7604eaaaa0","","","","","","null","<img class=left_person src='images/persons/person3.jpg'><div class=""fixation"">+</div>","null","","","practice","show_choice","5","0","2","","","","","","","","","","","",""
"html-keyboard-response","45","465944","0.0-7.0-2.5","662f798279ec5f7604eaaaa0","","","","","","null","<img class=left_person src='images/persons/person3.jpg'><img class=product src='images/products/cake.jpg'><div class=""fixation"">+</div>","null","","","practice","show_product1","5","","","2","","","","","","","","","","",""
"html-keyboard-response","46","466953","0.0-7.0-3.5","662f798279ec5f7604eaaaa0","","","","","","null","<img class=left_person src='images/persons/person3.jpg'><img class=reward src='images/one_coin.png'><img class=product src='images/products/cake.jpg'>","null","","","practice","show_reward1","5","","","2","1","","","","","","","","","",""
"html-keyboard-response","47","467719","0.0-7.0-4.5","662f798279ec5f7604eaaaa0","","","","","","null","<img class=left_person src='images/persons/person3.jpg'><div class=""fixation"">+</div>","null","","","practice","show_choice","5","0","2","","","","","","","","","","","",""
"html-keyboard-response","48","468481","0.0-7.0-5.5","662f798279ec5f7604eaaaa0","","","","","","null","<img class=left_person src='images/persons/person3.jpg'><img class=product src='images/products/necklace.jpg'><div class=""fixation"">+</div>","null","","","practice","show_product2","5","","","","","3","","","","","","","","",""
"html-keyboard-response","49","469484","0.0-7.0-6.5","662f798279ec5f7604eaaaa0","","","","","","null","<img class=left_person src='images/persons/person3.jpg'><img class=reward src='images/zero_coins.png'><img class=product src='images/products/necklace.jpg'>","null","","","practice","show_reward2","5","0","2","2","1","3","0","","","","","","","",""
"html-keyboard-response","50","472916","0.0-7.0-0.6","662f798279ec5f7604eaaaa0","","","","","","3276","<img class=left_person src='images/persons/person3.jpg'><img class=right_person src='images/persons/person2.jpg'><div class=""fixation"">+</div>","k","","","practice","choice","6","","","","","","","","","","","","","",""
"html-keyboard-response","51","473681","0.0-7.0-1.6","662f798279ec5f7604eaaaa0","","","","","","null","<img class=right_person src='images/persons/person2.jpg'><div class=""fixation"">+</div>","null","","","practice","show_choice","6","1","1","","","","","","","","","","","",""
"html-keyboard-response","52","474446","0.0-7.0-2.6","662f798279ec5f7604eaaaa0","","","","","","null","<img class=right_person src='images/persons/person2.jpg'><img class=product src='images/products/book.jpg'><div class=""fixation"">+</div>","null","","","practice","show_product1","6","","","1","","","","","","","","","","",""
"html-keyboard-response","53","475457","0.0-7.0-3.6","662f798279ec5f7604eaaaa0","","","","","","null","<img class=right_person src='images/persons/person2.jpg'><img class=reward src='images/one_coin.png'><img class=product src='images/products/book.jpg'>","null","","","practice","show_reward1","6","","","1","1","","","","","","","","","",""
"html-keyboard-response","54","476222","0.0-7.0-4.6","662f798279ec5f7604eaaaa0","","","","","","null","<img class=right_person src='images/persons/person2.jpg'><div class=""fixation"">+</div>","null","","","practice","show_choice","6","1","1","","","","","","","","","","","",""
"html-keyboard-response","55","476989","0.0-7.0-5.6","662f798279ec5f7604eaaaa0","","","","","","null","<img class=right_person src='images/persons/person2.jpg'><img class=product src='images/products/cake.jpg'><div class=""fixation"">+</div>","null","","","practice","show_product2","6","","","","","2","","","","","","","","",""
"html-keyboard-response","56","478004","0.0-7.0-6.6","662f798279ec5f7604eaaaa0","","","","","","null","<img class=right_person src='images/persons/person2.jpg'><img class=reward src='images/zero_coins.png'><img class=product src='images/products/cake.jpg'>","null","","","practice","show_reward2","6","1","1","1","1","2","0","","","","","","","",""
"html-keyboard-response","57","483896","0.0-7.0-0.7","662f798279ec5f7604eaaaa0","","","","","","5735","<img class=left_person src='images/persons/person4.jpg'><img class=right_person src='images/persons/person5.jpg'><div class=""fixation"">+</div>","s","","","practice","choice","7","","","","","","","","","","","","","",""
"html-keyboard-response","58","484653","0.0-7.0-1.7","662f798279ec5f7604eaaaa0","","","","","","null","<img class=left_person src='images/persons/person4.jpg'><div class=""fixation"">+</div>","null","","","practice","show_choice","7","0","3","","","","","","","","","","","",""
"html-keyboard-response","59","485419","0.0-7.0-2.7","662f798279ec5f7604eaaaa0","","","","","","null","<img class=left_person src='images/persons/person4.jpg'><img class=product src='images/products/printer.jpg'><div class=""fixation"">+</div>","null","","","practice","show_product1","7","","","4","","","","","","","","","","",""
"html-keyboard-response","60","486426","0.0-7.0-3.7","662f798279ec5f7604eaaaa0","","","","","","null","<img class=left_person src='images/persons/person4.jpg'><img class=reward src='images/one_coin.png'><img class=product src='images/products/printer.jpg'>","null","","","practice","show_reward1","7","","","4","1","","","","","","","","","",""
"html-keyboard-response","61","487190","0.0-7.0-4.7","662f798279ec5f7604eaaaa0","","","","","","null","<img class=left_person src='images/persons/person4.jpg'><div class=""fixation"">+</div>","null","","","practice","show_choice","7","0","3","","","","","","","","","","","",""
"html-keyboard-response","62","487954","0.0-7.0-5.7","662f798279ec5f7604eaaaa0","","","","","","null","<img class=left_person src='images/persons/person4.jpg'><img class=product src='images/products/necklace.jpg'><div class=""fixation"">+</div>","null","","","practice","show_product2","7","","","","","3","","","","","","","","",""
"html-keyboard-response","63","488967","0.0-7.0-6.7","662f798279ec5f7604eaaaa0","","","","","","null","<img class=left_person src='images/persons/person4.jpg'><img class=reward src='images/one_coin.png'><img class=product src='images/products/necklace.jpg'>","null","","","practice","show_reward2","7","0","3","4","1","3","1","","","","","","","",""
"html-keyboard-response","64","493361","0.0-7.0-0.8","662f798279ec5f7604eaaaa0","","","","","","4238","<img class=left_person src='images/persons/person3.jpg'><img class=right_person src='images/persons/person2.jpg'><div class=""fixation"">+</div>","s","","","practice","choice","8","","","","","","","","","","","","","",""
"html-keyboard-response","65","494118","0.0-7.0-1.8","662f798279ec5f7604eaaaa0","","","","","","null","<img class=left_person src='images/persons/person3.jpg'><div class=""fixation"">+</div>","null","","","practice","show_choice","8","0","2","","","","","","","","","","","",""
"html-keyboard-response","66","494882","0.0-7.0-2.8","662f798279ec5f7604eaaaa0","","","","","","null","<img class=left_person src='images/persons/person3.jpg'><img class=product src='images/products/necklace.jpg'><div class=""fixation"">+</div>","null","","","practice","show_product1","8","","","3","","","","","","","","","","",""
"html-keyboard-response","67","495899","0.0-7.0-3.8","662f798279ec5f7604eaaaa0","","","","","","null","<img class=left_person src='images/persons/person3.jpg'><img class=reward src='images/one_coin.png'><img class=product src='images/products/necklace.jpg'>","null","","","practice","show_reward1","8","","","3","1","","","","","","","","","",""
"html-keyboard-response","68","496660","0.0-7.0-4.8","662f798279ec5f7604eaaaa0","","","","","","null","<img class=left_person src='images/persons/person3.jpg'><div class=""fixation"">+</div>","null","","","practice","show_choice","8","0","2","","","","","","","","","","","",""
"html-keyboard-response","69","497424","0.0-7.0-5.8","662f798279ec5f7604eaaaa0","","","","","","null","<img class=left_person src='images/persons/person3.jpg'><img class=product src='images/products/cake.jpg'><div class=""fixation"">+</div>","null","","","practice","show_product2","8","","","","","2","","","","","","","","",""
"html-keyboard-response","70","498439","0.0-7.0-6.8","662f798279ec5f7604eaaaa0","","","","","","null","<img class=left_person src='images/persons/person3.jpg'><img class=reward src='images/zero_coins.png'><img class=product src='images/products/cake.jpg'>","null","","","practice","show_reward2","8","0","2","3","1","2","0","","","","","","","",""
"html-keyboard-response","71","503226","0.0-7.0-0.9","662f798279ec5f7604eaaaa0","","","","","","4628","<img class=left_person src='images/persons/person1.jpg'><img class=right_person src='images/persons/person5.jpg'><div class=""fixation"">+</div>","k","","","practice","choice","9","","","","","","","","","","","","","",""
"html-keyboard-response","72","503982","0.0-7.0-1.9","662f798279ec5f7604eaaaa0","","","","","","null","<img class=right_person src='images/persons/person5.jpg'><div class=""fixation"">+</div>","null","","","practice","show_choice","9","1","4","","","","","","","","","","","",""
"html-keyboard-response","73","504749","0.0-7.0-2.9","662f798279ec5f7604eaaaa0","","","","","","null","<img class=right_person src='images/persons/person5.jpg'><img class=product src='images/products/printer.jpg'><div class=""fixation"">+</div>","null","","","practice","show_product1","9","","","4","","","","","","","","","","",""
"html-keyboard-response","74","505762","0.0-7.0-3.9","662f798279ec5f7604eaaaa0","","","","","","null","<img class=right_person src='images/persons/person5.jpg'><img class=reward src='images/one_coin.png'><img class=product src='images/products/printer.jpg'>","null","","","practice","show_reward1","9","","","4","1","","","","","","","","","",""
"html-keyboard-response","75","506523","0.0-7.0-4.9","662f798279ec5f7604eaaaa0","","","","","","null","<img class=right_person src='images/persons/person5.jpg'><div class=""fixation"">+</div>","null","","","practice","show_choice","9","1","4","","","","","","","","","","","",""
"html-keyboard-response","76","507288","0.0-7.0-5.9","662f798279ec5f7604eaaaa0","","","","","","null","<img class=right_person src='images/persons/person5.jpg'><img class=product src='images/products/bicycle.jpg'><div class=""fixation"">+</div>","null","","","practice","show_product2","9","","","","","0","","","","","","","","",""
"html-keyboard-response","77","508305","0.0-7.0-6.9","662f798279ec5f7604eaaaa0","","","","","","null","<img class=right_person src='images/persons/person5.jpg'><img class=reward src='images/zero_coins.png'><img class=product src='images/products/bicycle.jpg'>","null","","","practice","show_reward2","9","1","4","4","1","0","0","","","","","","","",""
"html-keyboard-response","78","512624","0.0-8.0","662f798279ec5f7604eaaaa0","","","","","","4162","<div> Good job! Practice completed. <br> <br> We will now move on to the real game. Do your best to win as much reward as you can. Good luck!<br><br> <b>Press any key to continue.</b></div>"," ","","","","","","","","","","","","","","","","","","",""
"html-keyboard-response","79","539295","0.0-9.0-0.0","662f798279ec5f7604eaaaa0","","","","","","25653","<p><u>We will now start period number<b> 1 out of 4</b> of your business</u></p>Each period will include 50 days after which you will have a short break and then continue from the exact same point. <br> <br><p style=""text-align: left"">Use the LEFT or RIGHT response keys (""s"" or ""k"", in correspondence) to make your selection. <br> Please do your best to win as many coins as possible!<br> </p><p style=""text-align: left""><b>Remember that:</b> <br> 1) The demand for each product is specific to that product alone <br> 2) The demand for each product may gradually change over time </p><p> <b> <u>Please note that participants who engage with the task and pay close attention earn a much higher bonus than participants who respond randomly</u> </b> </p><p><b>Press SPACE to start</b></p>"," ","","","","","","","","","","","","","","","","","","",""
"html-keyboard-response","80","543241","0.0-9.0-1.0-0.0","662f798279ec5f7604eaaaa0","","","","","","2935","<img class=left_person src='images/persons/person4.jpg'><img class=right_person src='images/persons/person3.jpg'><div class=""fixation"">+</div>","k","","","exp","choice","0","","","","","","","","","","","","","",""
"html-keyboard-response","81","543998","0.0-9.0-1.0-1.0","662f798279ec5f7604eaaaa0","","","","","","null","<img class=right_person src='images/persons/person3.jpg'><div class=""fixation"">+</div>","null","","","exp","show_choice","0","1","2","","","","","","","","","","","",""
"html-keyboard-response","82","544763","0.0-9.0-1.0-2.0","662f798279ec5f7604eaaaa0","","","","","","null","<img class=right_person src='images/persons/person3.jpg'><img class=product src='images/products/cake.jpg'><div class=""fixation"">+</div>","null","","","exp","show_product1","0","","","2","","","","","","","","","","",""
"html-keyboard-response","83","545769","0.0-9.0-1.0-3.0","662f798279ec5f7604eaaaa0","","","","","","null","<img class=right_person src='images/persons/person3.jpg'><img class=reward src='images/zero_coins.png'><img class=product src='images/products/cake.jpg'>","null","","","exp","show_reward1","0","","","2","0","","","","","","","","","",""
"html-keyboard-response","84","546524","0.0-9.0-1.0-4.0","662f798279ec5f7604eaaaa0","","","","","","null","<img class=right_person src='images/persons/person3.jpg'><div class=""fixation"">+</div>","null","","","exp","show_choice","0","1","2","","","","","","","","","","","",""
"html-keyboard-response","85","547290","0.0-9.0-1.0-5.0","662f798279ec5f7604eaaaa0","","","","","","null","<img class=right_person src='images/persons/person3.jpg'><img class=product src='images/products/necklace.jpg'><div class=""fixation"">+</div>","null","","","exp","show_product2","0","","","2","","","","","","","","","","",""
"html-keyboard-response","86","548301","0.0-9.0-1.0-6.0","662f798279ec5f7604eaaaa0","","","","","","null","<img class=right_person src='images/persons/person3.jpg'><img class=reward src='images/one_coin.png'><img class=product src='images/products/necklace.jpg'>","null","","","exp","show_reward2","0","1","2","2","0","3","1","3","2","0.406507461029105","0.55041249524802","0.233712394046597","0.720539982244372","0.576851323992014","0"
"html-keyboard-response","87","551049","0.0-9.0-1.0-0.1","662f798279ec5f7604eaaaa0","","","","","","2591","<img class=left_person src='images/persons/person4.jpg'><img class=right_person src='images/persons/person3.jpg'><div class=""fixation"">+</div>","s","","","exp","choice","1","","","","","","","","","","","","","",""
"html-keyboard-response","88","551802","0.0-9.0-1.0-1.1","662f798279ec5f7604eaaaa0","","","","","","null","<img class=left_person src='images/persons/person4.jpg'><div class=""fixation"">+</div>","null","","","exp","show_choice","1","0","3","","","","","","","","","","","",""
"html-keyboard-response","89","552564","0.0-9.0-1.0-2.1","662f798279ec5f7604eaaaa0","","","","","","null","<img class=left_person src='images/persons/person4.jpg'><img class=product src='images/products/printer.jpg'><div class=""fixation"">+</div>","null","","","exp","show_product1","1","","","4","","","","","","","","","","",""
"html-keyboard-response","90","553581","0.0-9.0-1.0-3.1","662f798279ec5f7604eaaaa0","","","","","","null","<img class=left_person src='images/persons/person4.jpg'><img class=reward src='images/zero_coins.png'><img class=product src='images/products/printer.jpg'>","null","","","exp","show_reward1","1","","","4","0","","","","","","","","","",""
"html-keyboard-response","91","554342","0.0-9.0-1.0-4.1","662f798279ec5f7604eaaaa0","","","","","","null","<img class=left_person src='images/persons/person4.jpg'><div class=""fixation"">+</div>","null","","","exp","show_choice","1","0","3","","","","","","","","","","","",""
"html-keyboard-response","92","555104","0.0-9.0-1.0-5.1","662f798279ec5f7604eaaaa0","","","","","","null","<img class=left_person src='images/persons/person4.jpg'><img class=product src='images/products/necklace.jpg'><div class=""fixation"">+</div>","null","","","exp","show_product2","1","","","4","","","","","","","","","","",""
"html-keyboard-response","93","556117","0.0-9.0-1.0-6.1","662f798279ec5f7604eaaaa0","","","","","","null","<img class=left_person src='images/persons/person4.jpg'><img class=reward src='images/one_coin.png'><img class=product src='images/products/necklace.jpg'>","null","","","exp","show_reward2","1","0","3","4","0","3","1","3","2","0.41178953875257","0.575343218095664","0.263553242815869","0.737182030067099","0.599936044086846","0"
"html-keyboard-response","94","558095","0.0-9.0-1.0-0.2","662f798279ec5f7604eaaaa0","","","","","","1820","<img class=left_person src='images/persons/person4.jpg'><img class=right_person src='images/persons/person5.jpg'><div class=""fixation"">+</div>","s","","","exp","choice","2","","","","","","","","","","","","","",""
"html-keyboard-response","95","558861","0.0-9.0-1.0-1.2","662f798279ec5f7604eaaaa0","","","","","","null","<img class=left_person src='images/persons/person4.jpg'><div class=""fixation"">+</div>","null","","","exp","show_choice","2","0","3","","","","","","","","","","","",""
"html-keyboard-response","96","559624","0.0-9.0-1.0-2.2","662f798279ec5f7604eaaaa0","","","","","","null","<img class=left_person src='images/persons/person4.jpg'><img class=product src='images/products/printer.jpg'><div class=""fixation"">+</div>","null","","","exp","show_product1","2","","","4","","","","","","","","","","",""
"html-keyboard-response","97","560634","0.0-9.0-1.0-3.2","662f798279ec5f7604eaaaa0","","","","","","null","<img class=left_person src='images/persons/person4.jpg'><img class=reward src='images/zero_coins.png'><img class=product src='images/products/printer.jpg'>","null","","","exp","show_reward1","2","","","4","0","","","","","","","","","",""
"html-keyboard-response","98","561396","0.0-9.0-1.0-4.2","662f798279ec5f7604eaaaa0","","","","","","null","<img class=left_person src='images/persons/person4.jpg'><div class=""fixation"">+</div>","null","","","exp","show_choice","2","0","3","","","","","","","","","","","",""
"html-keyboard-response","99","562161","0.0-9.0-1.0-5.2","662f798279ec5f7604eaaaa0","","","","","","null","<img class=left_person src='images/persons/person4.jpg'><img class=product src='images/products/necklace.jpg'><div class=""fixation"">+</div>","null","","","exp","show_product2","2","","","4","","","","","","","","","","",""
"html-keyboard-response","100","563165","0.0-9.0-1.0-6.2","662f798279ec5f7604eaaaa0","","","","","","null","<img class=left_person src='images/persons/person4.jpg'><img class=reward src='images/one_coin.png'><img class=product src='images/products/necklace.jpg'>","null","","","exp","show_reward2","2","0","3","4","0","3","1","3","4","0.367233408750959","0.56844264687713","0.220854074063116","0.796500731166472","0.635615934637238","0"
"html-keyboard-response","101","565983","0.0-9.0-1.0-0.3","662f798279ec5f7604eaaaa0","","","","","","2661","<img class=left_person src='images/persons/person5.jpg'><img class=right_person src='images/persons/person4.jpg'><div class=""fixation"">+</div>","k","","","exp","choice","3","","","","","","","","","","","","","",""
"html-keyboard-response","102","566746","0.0-9.0-1.0-1.3","662f798279ec5f7604eaaaa0","","","","","","null","<img class=right_person src='images/persons/person4.jpg'><div class=""fixation"">+</div>","null","","","exp","show_choice","3","1","3","","","","","","","","","","","",""
"html-keyboard-response","103","567511","0.0-9.0-1.0-2.3","662f798279ec5f7604eaaaa0","","","","","","null","<img class=right_person src='images/persons/person4.jpg'><img class=product src='images/products/printer.jpg'><div class=""fixation"">+</div>","null","","","exp","show_product1","3","","","4","","","","","","","","","","",""
"html-keyboard-response","104","568521","0.0-9.0-1.0-3.3","662f798279ec5f7604eaaaa0","","","","","","null","<img class=right_person src='images/persons/person4.jpg'><img class=reward src='images/one_coin.png'><img class=product src='images/products/printer.jpg'>","null","","","exp","show_reward1","3","","","4","1","","","","","","","","","",""
"html-keyboard-response","105","569287","0.0-9.0-1.0-4.3","662f798279ec5f7604eaaaa0","","","","","","null","<img class=right_person src='images/persons/person4.jpg'><div class=""fixation"">+</div>","null","","","exp","show_choice","3","1","3","","","","","","","","","","","",""
"html-keyboard-response","106","570054","0.0-9.0-1.0-5.3","662f798279ec5f7604eaaaa0","","","","","","null","<img class=right_person src='images/persons/person4.jpg'><img class=product src='images/products/necklace.jpg'><div class=""fixation"">+</div>","null","","","exp","show_product2","3","","","4","","","","","","","","","","",""
"html-keyboard-response","107","571064","0.0-9.0-1.0-6.3","662f798279ec5f7604eaaaa0","","","","","","null","<img class=right_person src='images/persons/person4.jpg'><img class=reward src='images/one_coin.png'><img class=product src='images/products/necklace.jpg'>","null","","","exp","show_reward2","3","1","3","4","1","3","1","4","3","0.364328047402342","0.533038210254335","0.237780580491854","0.78032486873618","0.661922717157868","0"
"html-keyboard-response","108","574119","0.0-9.0-1.0-0.4","662f798279ec5f7604eaaaa0","","","","","","2895","<img class=left_person src='images/persons/person5.jpg'><img class=right_person src='images/persons/person1.jpg'><div class=""fixation"">+</div>","s","","","exp","choice","4","","","","","","","","","","","","","",""
"html-keyboard-response","109","574886","0.0-9.0-1.0-1.4","662f798279ec5f7604eaaaa0","","","","","","null","<img class=left_person src='images/persons/person5.jpg'><div class=""fixation"">+</div>","null","","","exp","show_choice","4","0","4","","","","","","","","","","","",""
"html-keyboard-response","110","575648","0.0-9.0-1.0-2.4","662f798279ec5f7604eaaaa0","","","","","","null","<img class=left_person src='images/persons/person5.jpg'><img class=product src='images/products/printer.jpg'><div class=""fixation"">+</div>","null","","","exp","show_product1","4","","","4","","","","","","","","","","",""
"html-keyboard-response","111","576663","0.0-9.0-1.0-3.4","662f798279ec5f7604eaaaa0","","","","","","null","<img class=left_person src='images/persons/person5.jpg'><img class=reward src='images/one_coin.png'><img class=product src='images/products/printer.jpg'>","null","","","exp","show_reward1","4","","","4","1","","","","","","","","","",""
"html-keyboard-response","112","577426","0.0-9.0-1.0-4.4","662f798279ec5f7604eaaaa0","","","","","","null","<img class=left_person src='images/persons/person5.jpg'><div class=""fixation"">+</div>","null","","","exp","show_choice","4","0","4","","","","","","","","","","","",""
"html-keyboard-response","113","578190","0.0-9.0-1.0-5.4","662f798279ec5f7604eaaaa0","","","","","","null","<img class=left_person src='images/persons/person5.jpg'><img class=product src='images/products/bicycle.jpg'><div class=""fixation"">+</div>","null","","","exp","show_product2","4","","","4","","","","","","","","","","",""
"html-keyboard-response","114","579202","0.0-9.0-1.0-6.4","662f798279ec5f7604eaaaa0","","","","","","null","<img class=left_person src='images/persons/person5.jpg'><img class=reward src='images/zero_coins.png'><img class=product src='images/products/bicycle.jpg'>","null","","","exp","show_reward2","4","0","4","4","1","0","0","4","0","0.360288866024515","0.5504750437236","0.211158704539782","0.787632352678371","0.672817237609587","0"
"html-keyboard-response","115","581371","0.0-9.0-1.0-0.5","662f798279ec5f7604eaaaa0","","","","","","2011","<img class=left_person src='images/persons/person5.jpg'><img class=right_person src='images/persons/person4.jpg'><div class=""fixation"">+</div>","k","","","exp","choice","5","","","","","","","","","","","","","",""
"html-keyboard-response","116","582138","0.0-9.0-1.0-1.5","662f798279ec5f7604eaaaa0","","","","","","null","<img class=right_person src='images/persons/person4.jpg'><div class=""fixation"">+</div>","null","","","exp","show_choice","5","1","3","","","","","","","","","","","",""
"html-keyboard-response","117","582903","0.0-9.0-1.0-2.5","662f798279ec5f7604eaaaa0","","","","","","null","<img class=right_person src='images/persons/person4.jpg'><img class=product src='images/products/necklace.jpg'><div class=""fixation"">+</div>","null","","","exp","show_product1","5","","","3","","","","","","","","","","",""
"html-keyboard-response","118","583914","0.0-9.0-1.0-3.5","662f798279ec5f7604eaaaa0","","","","","","null","<img class=right_person src='images/persons/person4.jpg'><img class=reward src='images/one_coin.png'><img class=product src='images/products/necklace.jpg'>","null","","","exp","show_reward1","5","","","3","1","","","","","","","","","",""
"html-keyboard-response","119","584680","0.0-9.0-1.0-4.5","662f798279ec5f7604eaaaa0","","","","","","null","<img class=right_person src='images/persons/person4.jpg'><div class=""fixation"">+</div>","null","","","exp","show_choice","5","1","3","","","","","","","","","","","",""
"html-keyboard-response","120","585443","0.0-9.0-1.0-5.5","662f798279ec5f7604eaaaa0","","","","","","null","<img class=right_person src='images/persons/person4.jpg'><img class=product src='images/products/printer.jpg'><div class=""fixation"">+</div>","null","","","exp","show_product2","5","","","3","","","","","","","","","","",""
"html-keyboard-response","121","586455","0.0-9.0-1.0-6.5","662f798279ec5f7604eaaaa0","","","","","","null","<img class=right_person src='images/persons/person4.jpg'><img class=reward src='images/zero_coins.png'><img class=product src='images/products/printer.jpg'>","null","","","exp","show_reward2","5","1","3","3","1","4","0","4","3","0.359501368301836","0.567098297392421","0.207187222475313","0.800117673381618","0.647600719490485","0"
"html-keyboard-response","122","590458","0.0-9.0-1.0-0.6","662f798279ec5f7604eaaaa0","","","","","","3847","<img class=left_person src='images/persons/person5.jpg'><img class=right_person src='images/persons/person1.jpg'><div class=""fixation"">+</div>","s","","","exp","choice","6","","","","","","","","","","","","","",""
"html-keyboard-response","123","591210","0.0-9.0-1.0-1.6","662f798279ec5f7604eaaaa0","","","","","","null","<img class=left_person src='images/persons/person5.jpg'><div class=""fixation"">+</div>","null","","","exp","show_choice","6","0","4","","","","","","","","","","","",""
"html-keyboard-response","124","591974","0.0-9.0-1.0-2.6","662f798279ec5f7604eaaaa0","","","","","","null","<img class=left_person src='images/persons/person5.jpg'><img class=product src='images/products/bicycle.jpg'><div class=""fixation"">+</div>","null","","","exp","show_product1","6","","","0","","","","","","","","","","",""
"html-keyboard-response","125","592986","0.0-9.0-1.0-3.6","662f798279ec5f7604eaaaa0","","","","","","null","<img class=left_person src='images/persons/person5.jpg'><img class=reward src='images/zero_coins.png'><img class=product src='images/products/bicycle.jpg'>","null","","","exp","show_reward1","6","","","0","0","","","","","","","","","",""
"html-keyboard-response","126","593747","0.0-9.0-1.0-4.6","662f798279ec5f7604eaaaa0","","","","","","null","<img class=left_person src='images/persons/person5.jpg'><div class=""fixation"">+</div>","null","","","exp","show_choice","6","0","4","","","","","","","","","","","",""
"html-keyboard-response","127","594499","0.0-9.0-1.0-5.6","662f798279ec5f7604eaaaa0","","","","","","null","<img class=left_person src='images/persons/person5.jpg'><img class=product src='images/products/printer.jpg'><div class=""fixation"">+</div>","null","","","exp","show_product2","6","","","0","","","","","","","","","","",""
"html-keyboard-response","128","595514","0.0-9.0-1.0-6.6","662f798279ec5f7604eaaaa0","","","","","","null","<img class=left_person src='images/persons/person5.jpg'><img class=reward src='images/zero_coins.png'><img class=product src='images/products/printer.jpg'>","null","","","exp","show_reward2","6","0","4","0","0","4","0","4","0","0.316553412408368","0.530938785006247","0.212765961845424","0.85","0.616831734252712","0"
"html-keyboard-response","129","597841","0.0-9.0-1.0-0.7","662f798279ec5f7604eaaaa0","","","","","","2170","<img class=left_person src='images/persons/person3.jpg'><img class=right_person src='images/persons/person4.jpg'><div class=""fixation"">+</div>","s","","","exp","choice","7","","","","","","","","","","","","","",""
"html-keyboard-response","130","598595","0.0-9.0-1.0-1.7","662f798279ec5f7604eaaaa0","","","","","","null","<img class=left_person src='images/persons/person3.jpg'><div class=""fixation"">+</div>","null","","","exp","show_choice","7","0","2","","","","","","","","","","","",""
"html-keyboard-response","131","599358","0.0-9.0-1.0-2.7","662f798279ec5f7604eaaaa0","","","","","","null","<img class=left_person src='images/persons/person3.jpg'><img class=product src='images/products/necklace.jpg'><div class=""fixation"">+</div>","null","","","exp","show_product1","7","","","3","","","","","","","","","","",""
"html-keyboard-response","132","600372","0.0-9.0-1.0-3.7","662f798279ec5f7604eaaaa0","","","","","","null","<img class=left_person src='images/persons/person3.jpg'><img class=reward src='images/one_coin.png'><img class=product src='images/products/necklace.jpg'>","null","","","exp","show_reward1","7","","","3","1","","","","","","","","","",""
"html-keyboard-response","133","601135","0.0-9.0-1.0-4.7","662f798279ec5f7604eaaaa0","","","","","","null","<img class=left_person src='images/persons/person3.jpg'><div class=""fixation"">+</div>","null","","","exp","show_choice","7","0","2","","","","","","","","","","","",""
"html-keyboard-response","134","601898","0.0-9.0-1.0-5.7","662f798279ec5f7604eaaaa0","","","","","","null","<img class=left_person src='images/persons/person3.jpg'><img class=product src='images/products/cake.jpg'><div class=""fixation"">+</div>","null","","","exp","show_product2","7","","","3","","","","","","","","","","",""
"html-keyboard-response","135","602904","0.0-9.0-1.0-6.7","662f798279ec5f7604eaaaa0","","","","","","null","<img class=left_person src='images/persons/person3.jpg'><img class=reward src='images/zero_coins.png'><img class=product src='images/products/cake.jpg'>","null","","","exp","show_reward2","7","0","2","3","1","2","0","2","3","0.358579366230634","0.500567313131503","0.226297975088947","0.849280895531324","0.637221088880313","0"
"html-keyboard-response","136","607133","0.0-9.0-1.0-0.8","662f798279ec5f7604eaaaa0","","","","","","4073","<img class=left_person src='images/persons/person5.jpg'><img class=right_person src='images/persons/person1.jpg'><div class=""fixation"">+</div>","s","","","exp","choice","8","","","","","","","","","","","","","",""
"html-keyboard-response","137","607894","0.0-9.0-1.0-1.8","662f798279ec5f7604eaaaa0","","","","","","null","<img class=left_person src='images/persons/person5.jpg'><div class=""fixation"">+</div>","null","","","exp","show_choice","8","0","4","","","","","","","","","","","",""
"html-keyboard-response","138","608658","0.0-9.0-1.0-2.8","662f798279ec5f7604eaaaa0","","","","","","null","<img class=left_person src='images/persons/person5.jpg'><img class=product src='images/products/bicycle.jpg'><div class=""fixation"">+</div>","null","","","exp","show_product1","8","","","0","","","","","","","","","","",""
"html-keyboard-response","139","609666","0.0-9.0-1.0-3.8","662f798279ec5f7604eaaaa0","","","","","","null","<img class=left_person src='images/persons/person5.jpg'><img class=reward src='images/one_coin.png'><img class=product src='images/products/bicycle.jpg'>","null","","","exp","show_reward1","8","","","0","1","","","","","","","","","",""
"html-keyboard-response","140","610430","0.0-9.0-1.0-4.8","662f798279ec5f7604eaaaa0","","","","","","null","<img class=left_person src='images/persons/person5.jpg'><div class=""fixation"">+</div>","null","","","exp","show_choice","8","0","4","","","","","","","","","","","",""
"html-keyboard-response","141","611193","0.0-9.0-1.0-5.8","662f798279ec5f7604eaaaa0","","","","","","null","<img class=left_person src='images/persons/person5.jpg'><img class=product src='images/products/printer.jpg'><div class=""fixation"">+</div>","null","","","exp","show_product2","8","","","0","","","","","","","","","","",""
"html-keyboard-response","142","612200","0.0-9.0-1.0-6.8","662f798279ec5f7604eaaaa0","","","","","","null","<img class=left_person src='images/persons/person5.jpg'><img class=reward src='images/zero_coins.png'><img class=product src='images/products/printer.jpg'>","null","","","exp","show_reward2","8","0","4","0","1","4","0","4","0","0.340382705298176","0.448344390620293","0.210898320619758","0.85","0.539940821588639","0"
"html-keyboard-response","143","615321","0.0-9.0-1.0-0.9","662f798279ec5f7604eaaaa0","","","","","","2961","<img class=left_person src='images/persons/person2.jpg'><img class=right_person src='images/persons/person3.jpg'><div class=""fixation"">+</div>","k","","","exp","choice","9","","","","","","","","","","","","","",""
"html-keyboard-response","144","616084","0.0-9.0-1.0-1.9","662f798279ec5f7604eaaaa0","","","","","","null","<img class=right_person src='images/persons/person3.jpg'><div class=""fixation"">+</div>","null","","","exp","show_choice","9","1","2","","","","","","","","","","","",""
"html-keyboard-response","145","616844","0.0-9.0-1.0-2.9","662f798279ec5f7604eaaaa0","","","","","","null","<img class=right_person src='images/persons/person3.jpg'><img class=product src='images/products/necklace.jpg'><div class=""fixation"">+</div>","null","","","exp","show_product1","9","","","3","","","","","","","","","","",""
"html-keyboard-response","146","617861","0.0-9.0-1.0-3.9","662f798279ec5f7604eaaaa0","","","","","","null","<img class=right_person src='images/persons/person3.jpg'><img class=reward src='images/zero_coins.png'><img class=product src='images/products/necklace.jpg'>","null","","","exp","show_reward1","9","","","3","0","","","","","","","","","",""
"html-keyboard-response","147","618621","0.0-9.0-1.0-4.9","662f798279ec5f7604eaaaa0","","","","","","null","<img class=right_person src='images/persons/person3.jpg'><div class=""fixation"">+</div>","null","","","exp","show_choice","9","1","2","","","","","","","","","","","",""
"html-keyboard-response","148","619387","0.0-9.0-1.0-5.9","662f798279ec5f7604eaaaa0","","","","","","null","<img class=right_person src='images/persons/person3.jpg'><img class=product src='images/products/cake.jpg'><div class=""fixation"">+</div>","null","","","exp","show_product2","9","","","3","","","","","","","","","","",""
"html-keyboard-response","149","620402","0.0-9.0-1.0-6.9","662f798279ec5f7604eaaaa0","","","","","","null","<img class=right_person src='images/persons/person3.jpg'><img class=reward src='images/zero_coins.png'><img class=product src='images/products/cake.jpg'>","null","","","exp","show_reward2","9","1","2","3","0","2","0","1","2","0.318076783405522","0.472027678162431","0.20428747029721","0.839246926957122","0.620636008019719","0"
"html-keyboard-response","150","624979","0.0-9.0-1.0-0.10","662f798279ec5f7604eaaaa0","","","","","","4421","<img class=left_person src='images/persons/person2.jpg'><img class=right_person src='images/persons/person1.jpg'><div class=""fixation"">+</div>","k","","","exp","choice","10","","","","","","","","","","","","","",""
"html-keyboard-response","151","625736","0.0-9.0-1.0-1.10","662f798279ec5f7604eaaaa0","","","","","","null","<img class=right_person src='images/persons/person1.jpg'><div class=""fixation"">+</div>","null","","","exp","show_choice","10","1","0","","","","","","","","","","","",""
"html-keyboard-response","152","626501","0.0-9.0-1.0-2.10","662f798279ec5f7604eaaaa0","","","","","","null","<img class=right_person src='images/persons/person1.jpg'><img class=product src='images/products/book.jpg'><div class=""fixation"">+</div>","null","","","exp","show_product1","10","","","1","","","","","","","","","","",""
"html-keyboard-response","153","627512","0.0-9.0-1.0-3.10","662f798279ec5f7604eaaaa0","","","","","","null","<img class=right_person src='images/persons/person1.jpg'><img class=reward src='images/one_coin.png'><img class=product src='images/products/book.jpg'>","null","","","exp","show_reward1","10","","","1","1","","","","","","","","","",""
"html-keyboard-response","154","628278","0.0-9.0-1.0-4.10","662f798279ec5f7604eaaaa0","","","","","","null","<img class=right_person src='images/persons/person1.jpg'><div class=""fixation"">+</div>","null","","","exp","show_choice","10","1","0","","","","","","","","","","","",""
"html-keyboard-response","155","629041","0.0-9.0-1.0-5.10","662f798279ec5f7604eaaaa0","","","","","","null","<img class=right_person src='images/persons/person1.jpg'><img class=product src='images/products/bicycle.jpg'><div class=""fixation"">+</div>","null","","","exp","show_product2","10","","","1","","","","","","","","","","",""
"html-keyboard-response","156","630054","0.0-9.0-1.0-6.10","662f798279ec5f7604eaaaa0","","","","","","null","<img class=right_person src='images/persons/person1.jpg'><img class=reward src='images/one_coin.png'><img class=product src='images/products/bicycle.jpg'>","null","","","exp","show_reward2","10","1","0","1","1","0","1","1","0","0.276185955943674","0.473979742490966","0.15","0.822389236068851","0.674465517173692","0"
"html-keyboard-response","157","636222","0.0-9.0-1.0-0.11","662f798279ec5f7604eaaaa0","","","","","","null","<img class=left_person src='images/persons/person5.jpg'><img class=right_person src='images/persons/person1.jpg'><div class=""fixation"">+</div>","null","","","exp","choice","11","","","","","","","","","","","","","",""
"html-keyboard-response","158","636985","0.0-9.0-1.0-1.11","662f798279ec5f7604eaaaa0","","","","","","null","<div style=""font-size:40px;"">Press S or K</div>","null","","","exp","show_choice","11","null","null","","","","","","","","","","","",""
"html-keyboard-response","159","637748","0.0-9.0-1.0-2.11","662f798279ec5f7604eaaaa0","","","","","","null","<div style=""font-size:40px;"">Press S or K</div>","null","","","exp","show_product1","11","","","","","","","","","","","","","",""
"html-keyboard-response","160","638762","0.0-9.0-1.0-3.11","662f798279ec5f7604eaaaa0","","","","","","null","<div style=""font-size:40px;"">Press S or K</div>","null","","","exp","show_reward1","11","","","","","","","","","","","","","",""
"html-keyboard-response","161","639529","0.0-9.0-1.0-4.11","662f798279ec5f7604eaaaa0","","","","","","null","<div style=""font-size:40px;"">Press S or K</div>","null","","","exp","show_choice","11","null","null","","","","","","","","","","","",""
"html-keyboard-response","162","640295","0.0-9.0-1.0-5.11","662f798279ec5f7604eaaaa0","","","","","","null","<div style=""font-size:40px;"">Press S or K</div>","null","","","exp","show_product2","11","","","","","","","","","","","","","",""
"html-keyboard-response","163","641306","0.0-9.0-1.0-6.11","662f798279ec5f7604eaaaa0","","","","","","null","<div style=""font-size:40px;"">Press S or K</div>","null","","","exp","show_reward2","11","","","","","","","","","","","","","",""
"html-keyboard-response","164","644208","0.0-9.0-1.0-0.12","662f798279ec5f7604eaaaa0","","","","","","2743","<img class=left_person src='images/persons/person3.jpg'><img class=right_person src='images/persons/person2.jpg'><div class=""fixation"">+</div>","s","","","exp","choice","12","","","","","","","","","","","","","",""
"html-keyboard-response","165","644960","0.0-9.0-1.0-1.12","662f798279ec5f7604eaaaa0","","","","","","null","<img class=left_person src='images/persons/person3.jpg'><div class=""fixation"">+</div>","null","","","exp","show_choice","12","0","2","","","","","","","","","","","",""
"html-keyboard-response","166","645723","0.0-9.0-1.0-2.12","662f798279ec5f7604eaaaa0","","","","","","null","<img class=left_person src='images/persons/person3.jpg'><img class=product src='images/products/necklace.jpg'><div class=""fixation"">+</div>","null","","","exp","show_product1","12","","","3","","","","","","","","","","",""
"html-keyboard-response","167","646733","0.0-9.0-1.0-3.12","662f798279ec5f7604eaaaa0","","","","","","null","<img class=left_person src='images/persons/person3.jpg'><img class=reward src='images/one_coin.png'><img class=product src='images/products/necklace.jpg'>","null","","","exp","show_reward1","12","","","3","1","","","","","","","","","",""
"html-keyboard-response","168","647499","0.0-9.0-1.0-4.12","662f798279ec5f7604eaaaa0","","","","","","null","<img class=left_person src='images/persons/person3.jpg'><div class=""fixation"">+</div>","null","","","exp","show_choice","12","0","2","","","","","","","","","","","",""
"html-keyboard-response","169","648264","0.0-9.0-1.0-5.12","662f798279ec5f7604eaaaa0","","","","","","null","<img class=left_person src='images/persons/person3.jpg'><img class=product src='images/products/cake.jpg'><div class=""fixation"">+</div>","null","","","exp","show_product2","12","","","3","","","","","","","","","","",""
"html-keyboard-response","170","649282","0.0-9.0-1.0-6.12","662f798279ec5f7604eaaaa0","","","","","","null","<img class=left_person src='images/persons/person3.jpg'><img class=reward src='images/zero_coins.png'><img class=product src='images/products/cake.jpg'>","null","","","exp","show_reward2","12","0","2","3","1","2","0","2","1","0.319376885854591","0.557563654434813","0.174511106464412","0.82235841988738","0.715348073066321","0"
"html-keyboard-response","171","652790","0.0-9.0-1.0-0.13","662f798279ec5f7604eaaaa0","","","","","","3352","<img class=left_person src='images/persons/person3.jpg'><img class=right_person src='images/persons/person2.jpg'><div class=""fixation"">+</div>","s","","","exp","choice","13","","","","","","","","","","","","","",""
"html-keyboard-response","172","653548","0.0-9.0-1.0-1.13","662f798279ec5f7604eaaaa0","","","","","","null","<img class=left_person src='images/persons/person3.jpg'><div class=""fixation"">+</div>","null","","","exp","show_choice","13","0","2","","","","","","","","","","","",""
"html-keyboard-response","173","654314","0.0-9.0-1.0-2.13","662f798279ec5f7604eaaaa0","","","","","","null","<img class=left_person src='images/persons/person3.jpg'><img class=product src='images/products/necklace.jpg'><div class=""fixation"">+</div>","null","","","exp","show_product1","13","","","3","","","","","","","","","","",""
"html-keyboard-response","174","655323","0.0-9.0-1.0-3.13","662f798279ec5f7604eaaaa0","","","","","","null","<img class=left_person src='images/persons/person3.jpg'><img class=reward src='images/one_coin.png'><img class=product src='images/products/necklace.jpg'>","null","","","exp","show_reward1","13","","","3","1","","","","","","","","","",""
"html-keyboard-response","175","656084","0.0-9.0-1.0-4.13","662f798279ec5f7604eaaaa0","","","","","","null","<img class=left_person src='images/persons/person3.jpg'><div class=""fixation"">+</div>","null","","","exp","show_choice","13","0","2","","","","","","","","","","","",""
"html-keyboard-response","176","656852","0.0-9.0-1.0-5.13","662f798279ec5f7604eaaaa0","","","","","","null","<img class=left_person src='images/persons/person3.jpg'><img class=product src='images/products/cake.jpg'><div class=""fixation"">+</div>","null","","","exp","show_product2","13","","","3","","","","","","","","","","",""
"html-keyboard-response","177","657865","0.0-9.0-1.0-6.13","662f798279ec5f7604eaaaa0","","","","","","null","<img class=left_person src='images/persons/person3.jpg'><img class=reward src='images/zero_coins.png'><img class=product src='images/products/cake.jpg'>","null","","","exp","show_reward2","13","0","2","3","1","2","0","2","1","0.277157927311357","0.555217513237541","0.169541839167227","0.818936173108669","0.750211476604643","0"
"html-keyboard-response","178","661736","0.0-9.0-1.0-0.14","662f798279ec5f7604eaaaa0","","","","","","3715","<img class=left_person src='images/persons/person5.jpg'><img class=right_person src='images/persons/person1.jpg'><div class=""fixation"">+</div>","k","","","exp","choice","14","","","","","","","","","","","","","",""
"html-keyboard-response","179","662493","0.0-9.0-1.0-1.14","662f798279ec5f7604eaaaa0","","","","","","null","<img class=right_person src='images/persons/person1.jpg'><div class=""fixation"">+</div>","null","","","exp","show_choice","14","1","0","","","","","","","","","","","",""
"html-keyboard-response","180","663250","0.0-9.0-1.0-2.14","662f798279ec5f7604eaaaa0","","","","","","null","<img class=right_person src='images/persons/person1.jpg'><img class=product src='images/products/book.jpg'><div class=""fixation"">+</div>","null","","","exp","show_product1","14","","","1","","","","","","","","","","",""
"html-keyboard-response","181","664262","0.0-9.0-1.0-3.14","662f798279ec5f7604eaaaa0","","","","","","null","<img class=right_person src='images/persons/person1.jpg'><img class=reward src='images/one_coin.png'><img class=product src='images/products/book.jpg'>","null","","","exp","show_reward1","14","","","1","1","","","","","","","","","",""
"html-keyboard-response","182","665029","0.0-9.0-1.0-4.14","662f798279ec5f7604eaaaa0","","","","","","null","<img class=right_person src='images/persons/person1.jpg'><div class=""fixation"">+</div>","null","","","exp","show_choice","14","1","0","","","","","","","","","","","",""
"html-keyboard-response","183","665795","0.0-9.0-1.0-5.14","662f798279ec5f7604eaaaa0","","","","","","null","<img class=right_person src='images/persons/person1.jpg'><img class=product src='images/products/bicycle.jpg'><div class=""fixation"">+</div>","null","","","exp","show_product2","14","","","1","","","","","","","","","","",""
"html-keyboard-response","184","666810","0.0-9.0-1.0-6.14","662f798279ec5f7604eaaaa0","","","","","","null","<img class=right_person src='images/persons/person1.jpg'><img class=reward src='images/zero_coins.png'><img class=product src='images/products/bicycle.jpg'>","null","","","exp","show_reward2","14","1","0","1","1","0","0","4","0","0.25644272974515","0.52539124024098","0.190247309103374","0.821042218242468","0.764149002617676","0"
"html-keyboard-response","185","670513","0.0-9.0-1.0-0.15","662f798279ec5f7604eaaaa0","","","","","","3543","<img class=left_person src='images/persons/person2.jpg'><img class=right_person src='images/persons/person1.jpg'><div class=""fixation"">+</div>","k","","","exp","choice","15","","","","","","","","","","","","","",""
"html-keyboard-response","186","671265","0.0-9.0-1.0-1.15","662f798279ec5f7604eaaaa0","","","","","","null","<img class=right_person src='images/persons/person1.jpg'><div class=""fixation"">+</div>","null","","","exp","show_choice","15","1","0","","","","","","","","","","","",""
"html-keyboard-response","187","672027","0.0-9.0-1.0-2.15","662f798279ec5f7604eaaaa0","","","","","","null","<img class=right_person src='images/persons/person1.jpg'><img class=product src='images/products/book.jpg'><div class=""fixation"">+</div>","null","","","exp","show_product1","15","","","1","","","","","","","","","","",""
"html-keyboard-response","188","673036","0.0-9.0-1.0-3.15","662f798279ec5f7604eaaaa0","","","","","","null","<img class=right_person src='images/persons/person1.jpg'><img class=reward src='images/one_coin.png'><img class=product src='images/products/book.jpg'>","null","","","exp","show_reward1","15","","","1","1","","","","","","","","","",""
"html-keyboard-response","189","673798","0.0-9.0-1.0-4.15","662f798279ec5f7604eaaaa0","","","","","","null","<img class=right_person src='images/persons/person1.jpg'><div class=""fixation"">+</div>","null","","","exp","show_choice","15","1","0","","","","","","","","","","","",""
"html-keyboard-response","190","674566","0.0-9.0-1.0-5.15","662f798279ec5f7604eaaaa0","","","","","","null","<img class=right_person src='images/persons/person1.jpg'><img class=product src='images/products/bicycle.jpg'><div class=""fixation"">+</div>","null","","","exp","show_product2","15","","","1","","","","","","","","","","",""
"html-keyboard-response","191","675579","0.0-9.0-1.0-6.15","662f798279ec5f7604eaaaa0","","","","","","null","<img class=right_person src='images/persons/person1.jpg'><img class=reward src='images/zero_coins.png'><img class=product src='images/products/bicycle.jpg'>","null","","","exp","show_reward2","15","1","0","1","1","0","0","1","0","0.273497021897991","0.511643976206076","0.199722031981632","0.8000877519523","0.770832229129188","0"
"html-keyboard-response","192","679293","0.0-9.0-1.0-0.16","662f798279ec5f7604eaaaa0","","","","","","3555","<img class=left_person src='images/persons/person4.jpg'><img class=right_person src='images/persons/person5.jpg'><div class=""fixation"">+</div>","s","","","exp","choice","16","","","","","","","","","","","","","",""
"html-keyboard-response","193","680049","0.0-9.0-1.0-1.16","662f798279ec5f7604eaaaa0","","","","","","null","<img class=left_person src='images/persons/person4.jpg'><div class=""fixation"">+</div>","null","","","exp","show_choice","16","0","3","","","","","","","","","","","",""
"html-keyboard-response","194","680813","0.0-9.0-1.0-2.16","662f798279ec5f7604eaaaa0","","","","","","null","<img class=left_person src='images/persons/person4.jpg'><img class=product src='images/products/printer.jpg'><div class=""fixation"">+</div>","null","","","exp","show_product1","16","","","4","","","","","","","","","","",""
"html-keyboard-response","195","681826","0.0-9.0-1.0-3.16","662f798279ec5f7604eaaaa0","","","","","","null","<img class=left_person src='images/persons/person4.jpg'><img class=reward src='images/one_coin.png'><img class=product src='images/products/printer.jpg'>","null","","","exp","show_reward1","16","","","4","1","","","","","","","","","",""
"html-keyboard-response","196","682588","0.0-9.0-1.0-4.16","662f798279ec5f7604eaaaa0","","","","","","null","<img class=left_person src='images/persons/person4.jpg'><div class=""fixation"">+</div>","null","","","exp","show_choice","16","0","3","","","","","","","","","","","",""
"html-keyboard-response","197","683351","0.0-9.0-1.0-5.16","662f798279ec5f7604eaaaa0","","","","","","null","<img class=left_person src='images/persons/person4.jpg'><img class=product src='images/products/necklace.jpg'><div class=""fixation"">+</div>","null","","","exp","show_product2","16","","","4","","","","","","","","","","",""
"html-keyboard-response","198","684359","0.0-9.0-1.0-6.16","662f798279ec5f7604eaaaa0","","","","","","null","<img class=left_person src='images/persons/person4.jpg'><img class=reward src='images/one_coin.png'><img class=product src='images/products/necklace.jpg'>","null","","","exp","show_reward2","16","0","3","4","1","3","1","3","4","0.273891417377866","0.515519884262608","0.200486182150105","0.766630815438285","0.740813845637912","0"
"html-keyboard-response","199","687644","0.0-9.0-1.0-0.17","662f798279ec5f7604eaaaa0","","","","","","3129","<img class=left_person src='images/persons/person3.jpg'><img class=right_person src='images/persons/person2.jpg'><div class=""fixation"">+</div>","s","","","exp","choice","17","","","","","","","","","","","","","",""
"html-keyboard-response","200","688404","0.0-9.0-1.0-1.17","662f798279ec5f7604eaaaa0","","","","","","null","<img class=left_person src='images/persons/person3.jpg'><div class=""fixation"">+</div>","null","","","exp","show_choice","17","0","2","","","","","","","","","","","",""
"html-keyboard-response","201","689170","0.0-9.0-1.0-2.17","662f798279ec5f7604eaaaa0","","","","","","null","<img class=left_person src='images/persons/person3.jpg'><img class=product src='images/products/cake.jpg'><div class=""fixation"">+</div>","null","","","exp","show_product1","17","","","2","","","","","","","","","","",""
"html-keyboard-response","202","690181","0.0-9.0-1.0-3.17","662f798279ec5f7604eaaaa0","","","","","","null","<img class=left_person src='images/persons/person3.jpg'><img class=reward src='images/zero_coins.png'><img class=product src='images/products/cake.jpg'>","null","","","exp","show_reward1","17","","","2","0","","","","","","","","","",""
"html-keyboard-response","203","690945","0.0-9.0-1.0-4.17","662f798279ec5f7604eaaaa0","","","","","","null","<img class=left_person src='images/persons/person3.jpg'><div class=""fixation"">+</div>","null","","","exp","show_choice","17","0","2","","","","","","","","","","","",""
"html-keyboard-response","204","691697","0.0-9.0-1.0-5.17","662f798279ec5f7604eaaaa0","","","","","","null","<img class=left_person src='images/persons/person3.jpg'><img class=product src='images/products/necklace.jpg'><div class=""fixation"">+</div>","null","","","exp","show_product2","17","","","2","","","","","","","","","","",""
"html-keyboard-response","205","692713","0.0-9.0-1.0-6.17","662f798279ec5f7604eaaaa0","","","","","","null","<img class=left_person src='images/persons/person3.jpg'><img class=reward src='images/one_coin.png'><img class=product src='images/products/necklace.jpg'>","null","","","exp","show_reward2","17","0","2","2","0","3","1","2","1","0.254951419024212","0.522103080213616","0.203320206746581","0.7303930496961","0.791809911738386","0"
"html-keyboard-response","206","695837","0.0-9.0-1.0-0.18","662f798279ec5f7604eaaaa0","","","","","","2967","<img class=left_person src='images/persons/person2.jpg'><img class=right_person src='images/persons/person3.jpg'><div class=""fixation"">+</div>","s","","","exp","choice","18","","","","","","","","","","","","","",""
"html-keyboard-response","207","696593","0.0-9.0-1.0-1.18","662f798279ec5f7604eaaaa0","","","","","","null","<img class=left_person src='images/persons/person2.jpg'><div class=""fixation"">+</div>","null","","","exp","show_choice","18","0","1","","","","","","","","","","","",""
"html-keyboard-response","208","697357","0.0-9.0-1.0-2.18","662f798279ec5f7604eaaaa0","","","","","","null","<img class=left_person src='images/persons/person2.jpg'><img class=product src='images/products/cake.jpg'><div class=""fixation"">+</div>","null","","","exp","show_product1","18","","","2","","","","","","","","","","",""
"html-keyboard-response","209","698370","0.0-9.0-1.0-3.18","662f798279ec5f7604eaaaa0","","","","","","null","<img class=left_person src='images/persons/person2.jpg'><img class=reward src='images/zero_coins.png'><img class=product src='images/products/cake.jpg'>","null","","","exp","show_reward1","18","","","2","0","","","","","","","","","",""
"html-keyboard-response","210","699132","0.0-9.0-1.0-4.18","662f798279ec5f7604eaaaa0","","","","","","null","<img class=left_person src='images/persons/person2.jpg'><div class=""fixation"">+</div>","null","","","exp","show_choice","18","0","1","","","","","","","","","","","",""
"html-keyboard-response","211","699898","0.0-9.0-1.0-5.18","662f798279ec5f7604eaaaa0","","","","","","null","<img class=left_person src='images/persons/person2.jpg'><img class=product src='images/products/book.jpg'><div class=""fixation"">+</div>","null","","","exp","show_product2","18","","","2","","","","","","","","","","",""
"html-keyboard-response","212","700914","0.0-9.0-1.0-6.18","662f798279ec5f7604eaaaa0","","","","","","null","<img class=left_person src='images/persons/person2.jpg'><img class=reward src='images/zero_coins.png'><img class=product src='images/products/book.jpg'>","null","","","exp","show_reward2","18","0","1","2","0","1","0","1","2","0.312032243449137","0.481017053760479","0.19102162142707","0.763782389135076","0.825543461167899","0"
"html-keyboard-response","213","702727","0.0-9.0-1.0-0.19","662f798279ec5f7604eaaaa0","","","","","","1657","<img class=left_person src='images/persons/person3.jpg'><img class=right_person src='images/persons/person2.jpg'><div class=""fixation"">+</div>","s","","","exp","choice","19","","","","","","","","","","","","","",""
"html-keyboard-response","214","703485","0.0-9.0-1.0-1.19","662f798279ec5f7604eaaaa0","","","","","","null","<img class=left_person src='images/persons/person3.jpg'><div class=""fixation"">+</div>","null","","","exp","show_choice","19","0","2","","","","","","","","","","","",""
"html-keyboard-response","215","704247","0.0-9.0-1.0-2.19","662f798279ec5f7604eaaaa0","","","","","","null","<img class=left_person src='images/persons/person3.jpg'><img class=product src='images/products/cake.jpg'><div class=""fixation"">+</div>","null","","","exp","show_product1","19","","","2","","","","","","","","","","",""
"html-keyboard-response","216","705259","0.0-9.0-1.0-3.19","662f798279ec5f7604eaaaa0","","","","","","null","<img class=left_person src='images/persons/person3.jpg'><img class=reward src='images/zero_coins.png'><img class=product src='images/products/cake.jpg'>","null","","","exp","show_reward1","19","","","2","0","","","","","","","","","",""
"html-keyboard-response","217","706020","0.0-9.0-1.0-4.19","662f798279ec5f7604eaaaa0","","","","","","null","<img class=left_person src='images/persons/person3.jpg'><div class=""fixation"">+</div>","null","","","exp","show_choice","19","0","2","","","","","","","","","","","",""
"html-keyboard-response","218","706787","0.0-9.0-1.0-5.19","662f798279ec5f7604eaaaa0","","","","","","null","<img class=left_person src='images/persons/person3.jpg'><img class=product src='images/products/necklace.jpg'><div class=""fixation"">+</div>","null","","","exp","show_product2","19","","","2","","","","","","","","","","",""
"html-keyboard-response","219","707799","0.0-9.0-1.0-6.19","662f798279ec5f7604eaaaa0","","","","","","null","<img class=left_person src='images/persons/person3.jpg'><img class=reward src='images/zero_coins.png'><img class=product src='images/products/necklace.jpg'>","null","","","exp","show_reward2","19","0","2","2","0","3","0","2","1","0.341374423977365","0.463532941049501","0.174042861511249","0.789790079665366","0.795124154334121","0"
"html-keyboard-response","220","711621","0.0-9.0-1.0-0.20","662f798279ec5f7604eaaaa0","","","","","","3665","<img class=left_person src='images/persons/person1.jpg'><img class=right_person src='images/persons/person5.jpg'><div class=""fixation"">+</div>","k","","","exp","choice","20","","","","","","","","","","","","","",""
"html-keyboard-response","221","712378","0.0-9.0-1.0-1.20","662f798279ec5f7604eaaaa0","","","","","","null","<img class=right_person src='images/persons/person5.jpg'><div class=""fixation"">+</div>","null","","","exp","show_choice","20","1","4","","","","","","","","","","","",""
"html-keyboard-response","222","713143","0.0-9.0-1.0-2.20","662f798279ec5f7604eaaaa0","","","","","","null","<img class=right_person src='images/persons/person5.jpg'><img class=product src='images/products/printer.jpg'><div class=""fixation"">+</div>","null","","","exp","show_product1","20","","","4","","","","","","","","","","",""
"html-keyboard-response","223","714156","0.0-9.0-1.0-3.20","662f798279ec5f7604eaaaa0","","","","","","null","<img class=right_person src='images/persons/person5.jpg'><img class=reward src='images/zero_coins.png'><img class=product src='images/products/printer.jpg'>","null","","","exp","show_reward1","20","","","4","0","","","","","","","","","",""
"html-keyboard-response","224","714914","0.0-9.0-1.0-4.20","662f798279ec5f7604eaaaa0","","","","","","null","<img class=right_person src='images/persons/person5.jpg'><div class=""fixation"">+</div>","null","","","exp","show_choice","20","1","4","","","","","","","","","","","",""
"html-keyboard-response","225","715678","0.0-9.0-1.0-5.20","662f798279ec5f7604eaaaa0","","","","","","null","<img class=right_person src='images/persons/person5.jpg'><img class=product src='images/products/bicycle.jpg'><div class=""fixation"">+</div>","null","","","exp","show_product2","20","","","4","","","","","","","","","","",""
"html-keyboard-response","226","716690","0.0-9.0-1.0-6.20","662f798279ec5f7604eaaaa0","","","","","","null","<img class=right_person src='images/persons/person5.jpg'><img class=reward src='images/zero_coins.png'><img class=product src='images/products/bicycle.jpg'>","null","","","exp","show_reward2","20","1","4","4","0","0","0","0","4","0.36588038524639","0.474368023260813","0.177309419861098","0.813054939404157","0.780813025915748","0"
"html-keyboard-response","227","718369","0.0-9.0-1.0-0.21","662f798279ec5f7604eaaaa0","","","","","","1521","<img class=left_person src='images/persons/person5.jpg'><img class=right_person src='images/persons/person1.jpg'><div class=""fixation"">+</div>","k","","","exp","choice","21","","","","","","","","","","","","","",""
"html-keyboard-response","228","719123","0.0-9.0-1.0-1.21","662f798279ec5f7604eaaaa0","","","","","","null","<img class=right_person src='images/persons/person1.jpg'><div class=""fixation"">+</div>","null","","","exp","show_choice","21","1","0","","","","","","","","","","","",""
"html-keyboard-response","229","719886","0.0-9.0-1.0-2.21","662f798279ec5f7604eaaaa0","","","","","","null","<img class=right_person src='images/persons/person1.jpg'><img class=product src='images/products/bicycle.jpg'><div class=""fixation"">+</div>","null","","","exp","show_product1","21","","","0","","","","","","","","","","",""
"html-keyboard-response","230","720900","0.0-9.0-1.0-3.21","662f798279ec5f7604eaaaa0","","","","","","null","<img class=right_person src='images/persons/person1.jpg'><img class=reward src='images/zero_coins.png'><img class=product src='images/products/bicycle.jpg'>","null","","","exp","show_reward1","21","","","0","0","","","","","","","","","",""
"html-keyboard-response","231","721664","0.0-9.0-1.0-4.21","662f798279ec5f7604eaaaa0","","","","","","null","<img class=right_person src='images/persons/person1.jpg'><div class=""fixation"">+</div>","null","","","exp","show_choice","21","1","0","","","","","","","","","","","",""
"html-keyboard-response","232","722428","0.0-9.0-1.0-5.21","662f798279ec5f7604eaaaa0","","","","","","null","<img class=right_person src='images/persons/person1.jpg'><img class=product src='images/products/book.jpg'><div class=""fixation"">+</div>","null","","","exp","show_product2","21","","","0","","","","","","","","","","",""
"html-keyboard-response","233","723439","0.0-9.0-1.0-6.21","662f798279ec5f7604eaaaa0","","","","","","null","<img class=right_person src='images/persons/person1.jpg'><img class=reward src='images/zero_coins.png'><img class=product src='images/products/book.jpg'>","null","","","exp","show_reward2","21","1","0","0","0","1","0","4","0","0.320982460294762","0.464500411096143","0.175104675802206","0.84393101386153","0.796615809560114","0"
"html-keyboard-response","234","725122","0.0-9.0-1.0-0.22","662f798279ec5f7604eaaaa0","","","","","","1527","<img class=left_person src='images/persons/person2.jpg'><img class=right_person src='images/persons/person3.jpg'><div class=""fixation"">+</div>","s","","","exp","choice","22","","","","","","","","","","","","","",""
"html-keyboard-response","235","725887","0.0-9.0-1.0-1.22","662f798279ec5f7604eaaaa0","","","","","","null","<img class=left_person src='images/persons/person2.jpg'><div class=""fixation"">+</div>","null","","","exp","show_choice","22","0","1","","","","","","","","","","","",""
"html-keyboard-response","236","726650","0.0-9.0-1.0-2.22","662f798279ec5f7604eaaaa0","","","","","","null","<img class=left_person src='images/persons/person2.jpg'><img class=product src='images/products/cake.jpg'><div class=""fixation"">+</div>","null","","","exp","show_product1","22","","","2","","","","","","","","","","",""
"html-keyboard-response","237","727665","0.0-9.0-1.0-3.22","662f798279ec5f7604eaaaa0","","","","","","null","<img class=left_person src='images/persons/person2.jpg'><img class=reward src='images/zero_coins.png'><img class=product src='images/products/cake.jpg'>","null","","","exp","show_reward1","22","","","2","0","","","","","","","","","",""
"html-keyboard-response","238","728429","0.0-9.0-1.0-4.22","662f798279ec5f7604eaaaa0","","","","","","null","<img class=left_person src='images/persons/person2.jpg'><div class=""fixation"">+</div>","null","","","exp","show_choice","22","0","1","","","","","","","","","","","",""
"html-keyboard-response","239","729194","0.0-9.0-1.0-5.22","662f798279ec5f7604eaaaa0","","","","","","null","<img class=left_person src='images/persons/person2.jpg'><img class=product src='images/products/book.jpg'><div class=""fixation"">+</div>","null","","","exp","show_product2","22","","","2","","","","","","","","","","",""
"html-keyboard-response","240","730208","0.0-9.0-1.0-6.22","662f798279ec5f7604eaaaa0","","","","","","null","<img class=left_person src='images/persons/person2.jpg'><img class=reward src='images/one_coin.png'><img class=product src='images/products/book.jpg'>","null","","","exp","show_reward2","22","0","1","2","0","1","1","1","2","0.3244012086387","0.48776031756087","0.15","0.790738341178822","0.752435068180344","0"
"html-keyboard-response","241","733477","0.0-9.0-1.0-0.23","662f798279ec5f7604eaaaa0","","","","","","3113","<img class=left_person src='images/persons/person3.jpg'><img class=right_person src='images/persons/person2.jpg'><div class=""fixation"">+</div>","k","","","exp","choice","23","","","","","","","","","","","","","",""
"html-keyboard-response","242","734243","0.0-9.0-1.0-1.23","662f798279ec5f7604eaaaa0","","","","","","null","<img class=right_person src='images/persons/person2.jpg'><div class=""fixation"">+</div>","null","","","exp","show_choice","23","1","1","","","","","","","","","","","",""
"html-keyboard-response","243","735010","0.0-9.0-1.0-2.23","662f798279ec5f7604eaaaa0","","","","","","null","<img class=right_person src='images/persons/person2.jpg'><img class=product src='images/products/book.jpg'><div class=""fixation"">+</div>","null","","","exp","show_product1","23","","","1","","","","","","","","","","",""
"html-keyboard-response","244","736022","0.0-9.0-1.0-3.23","662f798279ec5f7604eaaaa0","","","","","","null","<img class=right_person src='images/persons/person2.jpg'><img class=reward src='images/one_coin.png'><img class=product src='images/products/book.jpg'>","null","","","exp","show_reward1","23","","","1","1","","","","","","","","","",""
"html-keyboard-response","245","736782","0.0-9.0-1.0-4.23","662f798279ec5f7604eaaaa0","","","","","","null","<img class=right_person src='images/persons/person2.jpg'><div class=""fixation"">+</div>","null","","","exp","show_choice","23","1","1","","","","","","","","","","","",""
"html-keyboard-response","246","737547","0.0-9.0-1.0-5.23","662f798279ec5f7604eaaaa0","","","","","","null","<img class=right_person src='images/persons/person2.jpg'><img class=product src='images/products/cake.jpg'><div class=""fixation"">+</div>","null","","","exp","show_product2","23","","","1","","","","","","","","","","",""
"html-keyboard-response","247","738554","0.0-9.0-1.0-6.23","662f798279ec5f7604eaaaa0","","","","","","null","<img class=right_person src='images/persons/person2.jpg'><img class=reward src='images/zero_coins.png'><img class=product src='images/products/cake.jpg'>","null","","","exp","show_reward2","23","1","1","1","1","2","0","2","1","0.330027330974978","0.479917549297136","0.20909017634049","0.810835526904358","0.753862423574943","0"
"html-keyboard-response","248","740348","0.0-9.0-1.0-0.24","662f798279ec5f7604eaaaa0","","","","","","1637","<img class=left_person src='images/persons/person5.jpg'><img class=right_person src='images/persons/person4.jpg'><div class=""fixation"">+</div>","s","","","exp","choice","24","","","","","","","","","","","","","",""
"html-keyboard-response","249","741102","0.0-9.0-1.0-1.24","662f798279ec5f7604eaaaa0","","","","","","null","<img class=left_person src='images/persons/person5.jpg'><div class=""fixation"">+</div>","null","","","exp","show_choice","24","0","4","","","","","","","","","","","",""
"html-keyboard-response","250","741863","0.0-9.0-1.0-2.24","662f798279ec5f7604eaaaa0","","","","","","null","<img class=left_person src='images/persons/person5.jpg'><img class=product src='images/products/printer.jpg'><div class=""fixation"">+</div>","null","","","exp","show_product1","24","","","4","","","","","","","","","","",""
"html-keyboard-response","251","742871","0.0-9.0-1.0-3.24","662f798279ec5f7604eaaaa0","","","","","","null","<img class=left_person src='images/persons/person5.jpg'><img class=reward src='images/one_coin.png'><img class=product src='images/products/printer.jpg'>","null","","","exp","show_reward1","24","","","4","1","","","","","","","","","",""
"html-keyboard-response","252","743636","0.0-9.0-1.0-4.24","662f798279ec5f7604eaaaa0","","","","","","null","<img class=left_person src='images/persons/person5.jpg'><div class=""fixation"">+</div>","null","","","exp","show_choice","24","0","4","","","","","","","","","","","",""
"html-keyboard-response","253","744399","0.0-9.0-1.0-5.24","662f798279ec5f7604eaaaa0","","","","","","null","<img class=left_person src='images/persons/person5.jpg'><img class=product src='images/products/bicycle.jpg'><div class=""fixation"">+</div>","null","","","exp","show_product2","24","","","4","","","","","","","","","","",""
"html-keyboard-response","254","745413","0.0-9.0-1.0-6.24","662f798279ec5f7604eaaaa0","","","","","","null","<img class=left_person src='images/persons/person5.jpg'><img class=reward src='images/one_coin.png'><img class=product src='images/products/bicycle.jpg'>","null","","","exp","show_reward2","24","0","4","4","1","0","1","4","3","0.363102116230606","0.510391928735227","0.227281798478941","0.808669506514659","0.75250724416214","0"
"html-keyboard-response","255","748988","0.0-9.0-1.0-0.25","662f798279ec5f7604eaaaa0","","","","","","3416","<img class=left_person src='images/persons/person3.jpg'><img class=right_person src='images/persons/person4.jpg'><div class=""fixation"">+</div>","k","","","exp","choice","25","","","","","","","","","","","","","",""
"html-keyboard-response","256","749742","0.0-9.0-1.0-1.25","662f798279ec5f7604eaaaa0","","","","","","null","<img class=right_person src='images/persons/person4.jpg'><div class=""fixation"">+</div>","null","","","exp","show_choice","25","1","3","","","","","","","","","","","",""
"html-keyboard-response","257","750505","0.0-9.0-1.0-2.25","662f798279ec5f7604eaaaa0","","","","","","null","<img class=right_person src='images/persons/person4.jpg'><img class=product src='images/products/printer.jpg'><div class=""fixation"">+</div>","null","","","exp","show_product1","25","","","4","","","","","","","","","","",""
"html-keyboard-response","258","751522","0.0-9.0-1.0-3.25","662f798279ec5f7604eaaaa0","","","","","","null","<img class=right_person src='images/persons/person4.jpg'><img class=reward src='images/zero_coins.png'><img class=product src='images/products/printer.jpg'>","null","","","exp","show_reward1","25","","","4","0","","","","","","","","","",""
"html-keyboard-response","259","752283","0.0-9.0-1.0-4.25","662f798279ec5f7604eaaaa0","","","","","","null","<img class=right_person src='images/persons/person4.jpg'><div class=""fixation"">+</div>","null","","","exp","show_choice","25","1","3","","","","","","","","","","","",""
"html-keyboard-response","260","753037","0.0-9.0-1.0-5.25","662f798279ec5f7604eaaaa0","","","","","","null","<img class=right_person src='images/persons/person4.jpg'><img class=product src='images/products/necklace.jpg'><div class=""fixation"">+</div>","null","","","exp","show_product2","25","","","4","","","","","","","","","","",""
"html-keyboard-response","261","754053","0.0-9.0-1.0-6.25","662f798279ec5f7604eaaaa0","","","","","","null","<img class=right_person src='images/persons/person4.jpg'><img class=reward src='images/one_coin.png'><img class=product src='images/products/necklace.jpg'>","null","","","exp","show_reward2","25","1","3","4","0","3","1","2","3","0.365062428421459","0.557318404500998","0.199608333271639","0.830427921003512","0.741156088497305","0"
"html-keyboard-response","262","759571","0.0-9.0-1.0-0.26","662f798279ec5f7604eaaaa0","","","","","","5362","<img class=left_person src='images/persons/person5.jpg'><img class=right_person src='images/persons/person1.jpg'><div class=""fixation"">+</div>","s","","","exp","choice","26","","","","","","","","","","","","","",""
"html-keyboard-response","263","760330","0.0-9.0-1.0-1.26","662f798279ec5f7604eaaaa0","","","","","","null","<img class=left_person src='images/persons/person5.jpg'><div class=""fixation"">+</div>","null","","","exp","show_choice","26","0","4","","","","","","","","","","","",""
"html-keyboard-response","264","761092","0.0-9.0-1.0-2.26","662f798279ec5f7604eaaaa0","","","","","","null","<img class=left_person src='images/persons/person5.jpg'><img class=product src='images/products/bicycle.jpg'><div class=""fixation"">+</div>","null","","","exp","show_product1","26","","","0","","","","","","","","","","",""
"html-keyboard-response","265","762103","0.0-9.0-1.0-3.26","662f798279ec5f7604eaaaa0","","","","","","null","<img class=left_person src='images/persons/person5.jpg'><img class=reward src='images/one_coin.png'><img class=product src='images/products/bicycle.jpg'>","null","","","exp","show_reward1","26","","","0","1","","","","","","","","","",""
"html-keyboard-response","266","762865","0.0-9.0-1.0-4.26","662f798279ec5f7604eaaaa0","","","","","","null","<img class=left_person src='images/persons/person5.jpg'><div class=""fixation"">+</div>","null","","","exp","show_choice","26","0","4","","","","","","","","","","","",""
"html-keyboard-response","267","763632","0.0-9.0-1.0-5.26","662f798279ec5f7604eaaaa0","","","","","","null","<img class=left_person src='images/persons/person5.jpg'><img class=product src='images/products/printer.jpg'><div class=""fixation"">+</div>","null","","","exp","show_product2","26","","","0","","","","","","","","","","",""
"html-keyboard-response","268","764636","0.0-9.0-1.0-6.26","662f798279ec5f7604eaaaa0","","","","","","null","<img class=left_person src='images/persons/person5.jpg'><img class=reward src='images/zero_coins.png'><img class=product src='images/products/printer.jpg'>","null","","","exp","show_reward2","26","0","4","0","1","4","0","4","0","0.403647291511982","0.540335162156038","0.191349092972107","0.787328188877734","0.73191286170991","0"
"html-keyboard-response","269","769338","0.0-9.0-1.0-0.27","662f798279ec5f7604eaaaa0","","","","","","4546","<img class=left_person src='images/persons/person4.jpg'><img class=right_person src='images/persons/person5.jpg'><div class=""fixation"">+</div>","k","","","exp","choice","27","","","","","","","","","","","","","",""
"html-keyboard-response","270","770091","0.0-9.0-1.0-1.27","662f798279ec5f7604eaaaa0","","","","","","null","<img class=right_person src='images/persons/person5.jpg'><div class=""fixation"">+</div>","null","","","exp","show_choice","27","1","4","","","","","","","","","","","",""
"html-keyboard-response","271","770854","0.0-9.0-1.0-2.27","662f798279ec5f7604eaaaa0","","","","","","null","<img class=right_person src='images/persons/person5.jpg'><img class=product src='images/products/bicycle.jpg'><div class=""fixation"">+</div>","null","","","exp","show_product1","27","","","0","","","","","","","","","","",""
"html-keyboard-response","272","771864","0.0-9.0-1.0-3.27","662f798279ec5f7604eaaaa0","","","","","","null","<img class=right_person src='images/persons/person5.jpg'><img class=reward src='images/one_coin.png'><img class=product src='images/products/bicycle.jpg'>","null","","","exp","show_reward1","27","","","0","1","","","","","","","","","",""
"html-keyboard-response","273","772617","0.0-9.0-1.0-4.27","662f798279ec5f7604eaaaa0","","","","","","null","<img class=right_person src='images/persons/person5.jpg'><div class=""fixation"">+</div>","null","","","exp","show_choice","27","1","4","","","","","","","","","","","",""
"html-keyboard-response","274","773382","0.0-9.0-1.0-5.27","662f798279ec5f7604eaaaa0","","","","","","null","<img class=right_person src='images/persons/person5.jpg'><img class=product src='images/products/printer.jpg'><div class=""fixation"">+</div>","null","","","exp","show_product2","27","","","0","","","","","","","","","","",""
"html-keyboard-response","275","774397","0.0-9.0-1.0-6.27","662f798279ec5f7604eaaaa0","","","","","","null","<img class=right_person src='images/persons/person5.jpg'><img class=reward src='images/zero_coins.png'><img class=product src='images/products/printer.jpg'>","null","","","exp","show_reward2","27","1","4","0","1","4","0","3","4","0.422348264546678","0.53637200027794","0.199338636804652","0.770453322443948","0.731308089758876","0"
"html-keyboard-response","276","778558","0.0-9.0-1.0-0.28","662f798279ec5f7604eaaaa0","","","","","","4003","<img class=left_person src='images/persons/person3.jpg'><img class=right_person src='images/persons/person2.jpg'><div class=""fixation"">+</div>","s","","","exp","choice","28","","","","","","","","","","","","","",""
"html-keyboard-response","277","779323","0.0-9.0-1.0-1.28","662f798279ec5f7604eaaaa0","","","","","","null","<img class=left_person src='images/persons/person3.jpg'><div class=""fixation"">+</div>","null","","","exp","show_choice","28","0","2","","","","","","","","","","","",""
"html-keyboard-response","278","780090","0.0-9.0-1.0-2.28","662f798279ec5f7604eaaaa0","","","","","","null","<img class=left_person src='images/persons/person3.jpg'><img class=product src='images/products/cake.jpg'><div class=""fixation"">+</div>","null","","","exp","show_product1","28","","","2","","","","","","","","","","",""
"html-keyboard-response","279","781100","0.0-9.0-1.0-3.28","662f798279ec5f7604eaaaa0","","","","","","null","<img class=left_person src='images/persons/person3.jpg'><img class=reward src='images/one_coin.png'><img class=product src='images/products/cake.jpg'>","null","","","exp","show_reward1","28","","","2","1","","","","","","","","","",""
"html-keyboard-response","280","781853","0.0-9.0-1.0-4.28","662f798279ec5f7604eaaaa0","","","","","","null","<img class=left_person src='images/persons/person3.jpg'><div class=""fixation"">+</div>","null","","","exp","show_choice","28","0","2","","","","","","","","","","","",""
"html-keyboard-response","281","782612","0.0-9.0-1.0-5.28","662f798279ec5f7604eaaaa0","","","","","","null","<img class=left_person src='images/persons/person3.jpg'><img class=product src='images/products/necklace.jpg'><div class=""fixation"">+</div>","null","","","exp","show_product2","28","","","2","","","","","","","","","","",""
"html-keyboard-response","282","783614","0.0-9.0-1.0-6.28","662f798279ec5f7604eaaaa0","","","","","","null","<img class=left_person src='images/persons/person3.jpg'><img class=reward src='images/one_coin.png'><img class=product src='images/products/necklace.jpg'>","null","","","exp","show_reward2","28","0","2","2","1","3","1","2","1","0.407037151417796","0.490248791414457","0.15","0.773021626927195","0.773177775121586","0"
"html-keyboard-response","283","787476","0.0-9.0-1.0-0.29","662f798279ec5f7604eaaaa0","","","","","","3709","<img class=left_person src='images/persons/person1.jpg'><img class=right_person src='images/persons/person2.jpg'><div class=""fixation"">+</div>","k","","","exp","choice","29","","","","","","","","","","","","","",""
"html-keyboard-response","284","788236","0.0-9.0-1.0-1.29","662f798279ec5f7604eaaaa0","","","","","","null","<img class=right_person src='images/persons/person2.jpg'><div class=""fixation"">+</div>","null","","","exp","show_choice","29","1","1","","","","","","","","","","","",""
"html-keyboard-response","285","788999","0.0-9.0-1.0-2.29","662f798279ec5f7604eaaaa0","","","","","","null","<img class=right_person src='images/persons/person2.jpg'><img class=product src='images/products/book.jpg'><div class=""fixation"">+</div>","null","","","exp","show_product1","29","","","1","","","","","","","","","","",""
"html-keyboard-response","286","790009","0.0-9.0-1.0-3.29","662f798279ec5f7604eaaaa0","","","","","","null","<img class=right_person src='images/persons/person2.jpg'><img class=reward src='images/zero_coins.png'><img class=product src='images/products/book.jpg'>","null","","","exp","show_reward1","29","","","1","0","","","","","","","","","",""
"html-keyboard-response","287","790774","0.0-9.0-1.0-4.29","662f798279ec5f7604eaaaa0","","","","","","null","<img class=right_person src='images/persons/person2.jpg'><div class=""fixation"">+</div>","null","","","exp","show_choice","29","1","1","","","","","","","","","","","",""
"html-keyboard-response","288","791539","0.0-9.0-1.0-5.29","662f798279ec5f7604eaaaa0","","","","","","null","<img class=right_person src='images/persons/person2.jpg'><img class=product src='images/products/cake.jpg'><div class=""fixation"">+</div>","null","","","exp","show_product2","29","","","1","","","","","","","","","","",""
"html-keyboard-response","289","792555","0.0-9.0-1.0-6.29","662f798279ec5f7604eaaaa0","","","","","","null","<img class=right_person src='images/persons/person2.jpg'><img class=reward src='images/one_coin.png'><img class=product src='images/products/cake.jpg'>","null","","","exp","show_reward2","29","1","1","1","0","2","1","0","1","0.441838602913987","0.535360756048151","0.190553212226844","0.834325891971119","0.750678756131058","0"
"html-keyboard-response","290","796423","0.0-9.0-1.0-0.30","662f798279ec5f7604eaaaa0","","","","","","3710","<img class=left_person src='images/persons/person1.jpg'><img class=right_person src='images/persons/person2.jpg'><div class=""fixation"">+</div>","s","","","exp","choice","30","","","","","","","","","","","","","",""
"html-keyboard-response","291","797175","0.0-9.0-1.0-1.30","662f798279ec5f7604eaaaa0","","","","","","null","<img class=left_person src='images/persons/person1.jpg'><div class=""fixation"">+</div>","null","","","exp","show_choice","30","0","0","","","","","","","","","","","",""
"html-keyboard-response","292","797937","0.0-9.0-1.0-2.30","662f798279ec5f7604eaaaa0","","","","","","null","<img class=left_person src='images/persons/person1.jpg'><img class=product src='images/products/book.jpg'><div class=""fixation"">+</div>","null","","","exp","show_product1","30","","","1","","","","","","","","","","",""
"html-keyboard-response","293","798952","0.0-9.0-1.0-3.30","662f798279ec5f7604eaaaa0","","","","","","null","<img class=left_person src='images/persons/person1.jpg'><img class=reward src='images/one_coin.png'><img class=product src='images/products/book.jpg'>","null","","","exp","show_reward1","30","","","1","1","","","","","","","","","",""
"html-keyboard-response","294","799719","0.0-9.0-1.0-4.30","662f798279ec5f7604eaaaa0","","","","","","null","<img class=left_person src='images/persons/person1.jpg'><div class=""fixation"">+</div>","null","","","exp","show_choice","30","0","0","","","","","","","","","","","",""
"html-keyboard-response","295","800479","0.0-9.0-1.0-5.30","662f798279ec5f7604eaaaa0","","","","","","null","<img class=left_person src='images/persons/person1.jpg'><img class=product src='images/products/bicycle.jpg'><div class=""fixation"">+</div>","null","","","exp","show_product2","30","","","1","","","","","","","","","","",""
"html-keyboard-response","296","801483","0.0-9.0-1.0-6.30","662f798279ec5f7604eaaaa0","","","","","","null","<img class=left_person src='images/persons/person1.jpg'><img class=reward src='images/one_coin.png'><img class=product src='images/products/bicycle.jpg'>","null","","","exp","show_reward2","30","0","0","1","1","0","1","0","1","0.423695482833348","0.541531006633969","0.15","0.812479504498076","0.725546158774749","0"
"html-keyboard-response","297","804760","0.0-9.0-1.0-0.31","662f798279ec5f7604eaaaa0","","","","","","3122","<img class=left_person src='images/persons/person2.jpg'><img class=right_person src='images/persons/person3.jpg'><div class=""fixation"">+</div>","k","","","exp","choice","31","","","","","","","","","","","","","",""
