"trial_type","trial_index","time_elapsed","internal_node_id","subject_id","success","timeout","failed_images","failed_audio","failed_video","rt","stimulus","response","view_history","question_order","phase","trial_name","trial_num","key_selected","person_selected","first_product","reward1","second_product","reward2","left_person","right_person","prob_product1","prob_product2","prob_product3","prob_product4","prob_product5","counterbalance"
"pavlovia","0","1013","0.0-0.0","5c519ec789254700019f7934","","","","","","","","","","","","","","","","","","","","","","","","","","",""
"preload","1","16230","0.0-1.0","5c519ec789254700019f7934","true","false","[]","[]","[]","","","","","","","","","","","","","","","","","","","","","",""
"html-button-response","2","19760","0.0-2.0","5c519ec789254700019f7934","","","","","","3521","<h2><b>Consent to participate in a research:</b></h2><p><strong>You will be paid only after participating in each of the 4 days (including today).</p>","1","","","","","","","","","","","","","","","","","","",""
"fullscreen","3","22762","0.0-3.0","5c519ec789254700019f7934","true","","","","","","","","","","","","","","","","","","","","","","","","","",""
"instructions","4","301920","0.0-4.0-0.0","5c519ec789254700019f7934","","","","","","279153","","","[{""page_index"":0,""viewing_time"":4234},{""page_index"":1,""viewing_time"":2817},{""page_index"":2,""viewing_time"":5479},{""page_index"":3,""viewing_time"":64145},{""page_index"":4,""viewing_time"":14386},{""page_index"":5,""viewing_time"":15880},{""page_index"":6,""viewing_time"":6361},{""page_index"":7,""viewing_time"":25087},{""page_index"":8,""viewing_time"":7583},{""page_index"":9,""viewing_time"":9411},{""page_index"":10,""viewing_time"":9198},{""page_index"":11,""viewing_time"":11591},{""page_index"":12,""viewing_time"":7316},{""page_index"":13,""viewing_time"":8977},{""page_index"":14,""viewing_time"":11091},{""page_index"":15,""viewing_time"":7385},{""page_index"":16,""viewing_time"":14343},{""page_index"":17,""viewing_time"":6644},{""page_index"":18,""viewing_time"":7326},{""page_index"":19,""viewing_time"":8196},{""page_index"":20,""viewing_time"":15163},{""page_index"":21,""viewing_time"":14189},{""page_index"":22,""viewing_time"":2324}]","","","","","","","","","","","","","","","","","",""
"survey-multi-choice","5","385083","0.0-4.0-1.0","5c519ec789254700019f7934","","","","","","83106","","{""number_persons"":""5"",""number_candidates"":""2"",""number_products"":""2"",""choose_candidate"":""Press the 'S' or 'K' key with your LEFT or RIGHT hand"",""transported_product"":""False, each delivery person can only deliver two products"",""product_person"":""False, the book has the same demand no matter who is delivering it"",""value_change"":""True, as in real markets the demand may slowly change"",""game_goal"":""The goal is to choose the best I can and earn as much bonus money as I can"",""independence"":""False, each product has its own demand in the market"",""location"":""The demand for the products is the same regardless of whether the chosen delivery person appears on the left or on the right""}","","[0,1,2,3,4,5,6,7,8,9]","","","","","","","","","","","","","","","","",""
"instructions","6","403259","0.0-5.0","5c519ec789254700019f7934","","","","","","18156","","","[{""page_index"":0,""viewing_time"":4397},{""page_index"":1,""viewing_time"":3555},{""page_index"":2,""viewing_time"":2103},{""page_index"":3,""viewing_time"":3315},{""page_index"":4,""viewing_time"":2072},{""page_index"":5,""viewing_time"":2712}]","","","","","","","","","","","","","","","","","",""
"html-keyboard-response","7","408687","0.0-6.0","5c519ec789254700019f7934","","","","","","5419","<div>We will now do a few practice trials. <br> Please be ready with your fingers on <b>s</b> and <b>k</b><br><br> <img class=keyboard src='images/examples/keyboard.png'>  <br><br> <b> Press any key to begin</b></div>"," ","","","","","","","","","","","","","","","","","","",""
"html-keyboard-response","8","411077","0.0-7.0-0.0","5c519ec789254700019f7934","","","","","","1370","<img class=left_person src='images/persons/person1.jpg'><img class=right_person src='images/persons/person5.jpg'><div class=""fixation"">+</div>","s","","","practice","choice","0","","","","","","","","","","","","","",""
"html-keyboard-response","9","411837","0.0-7.0-1.0","5c519ec789254700019f7934","","","","","","null","<img class=left_person src='images/persons/person1.jpg'><div class=""fixation"">+</div>","null","","","practice","show_choice","0","0","0","","","","","","","","","","","",""
"html-keyboard-response","10","412600","0.0-7.0-2.0","5c519ec789254700019f7934","","","","","","null","<img class=left_person src='images/persons/person1.jpg'><img class=product src='images/products/bicycle.jpg'><div class=""fixation"">+</div>","null","","","practice","show_product1","0","","","0","","","","","","","","","","",""
"html-keyboard-response","11","413620","0.0-7.0-3.0","5c519ec789254700019f7934","","","","","","null","<img class=left_person src='images/persons/person1.jpg'><img class=reward src='images/one_coin.png'><img class=product src='images/products/bicycle.jpg'>","null","","","practice","show_reward1","0","","","0","1","","","","","","","","","",""
"html-keyboard-response","12","414383","0.0-7.0-4.0","5c519ec789254700019f7934","","","","","","null","<img class=left_person src='images/persons/person1.jpg'><div class=""fixation"">+</div>","null","","","practice","show_choice","0","0","0","","","","","","","","","","","",""
"html-keyboard-response","13","415156","0.0-7.0-5.0","5c519ec789254700019f7934","","","","","","null","<img class=left_person src='images/persons/person1.jpg'><img class=product src='images/products/book.jpg'><div class=""fixation"">+</div>","null","","","practice","show_product2","0","","","","","1","","","","","","","","",""
"html-keyboard-response","14","416161","0.0-7.0-6.0","5c519ec789254700019f7934","","","","","","null","<img class=left_person src='images/persons/person1.jpg'><img class=reward src='images/zero_coins.png'><img class=product src='images/products/book.jpg'>","null","","","practice","show_reward2","0","0","0","0","1","1","0","","","","","","","",""
"html-keyboard-response","15","420857","0.0-7.0-0.1","5c519ec789254700019f7934","","","","","","4525","<img class=left_person src='images/persons/person2.jpg'><img class=right_person src='images/persons/person3.jpg'><div class=""fixation"">+</div>","s","","","practice","choice","1","","","","","","","","","","","","","",""
"html-keyboard-response","16","421619","0.0-7.0-1.1","5c519ec789254700019f7934","","","","","","null","<img class=left_person src='images/persons/person2.jpg'><div class=""fixation"">+</div>","null","","","practice","show_choice","1","0","1","","","","","","","","","","","",""
"html-keyboard-response","17","422386","0.0-7.0-2.1","5c519ec789254700019f7934","","","","","","null","<img class=left_person src='images/persons/person2.jpg'><img class=product src='images/products/cake.jpg'><div class=""fixation"">+</div>","null","","","practice","show_product1","1","","","2","","","","","","","","","","",""
"html-keyboard-response","18","423392","0.0-7.0-3.1","5c519ec789254700019f7934","","","","","","null","<img class=left_person src='images/persons/person2.jpg'><img class=reward src='images/one_coin.png'><img class=product src='images/products/cake.jpg'>","null","","","practice","show_reward1","1","","","2","1","","","","","","","","","",""
"html-keyboard-response","19","424156","0.0-7.0-4.1","5c519ec789254700019f7934","","","","","","null","<img class=left_person src='images/persons/person2.jpg'><div class=""fixation"">+</div>","null","","","practice","show_choice","1","0","1","","","","","","","","","","","",""
"html-keyboard-response","20","424918","0.0-7.0-5.1","5c519ec789254700019f7934","","","","","","null","<img class=left_person src='images/persons/person2.jpg'><img class=product src='images/products/book.jpg'><div class=""fixation"">+</div>","null","","","practice","show_product2","1","","","","","1","","","","","","","","",""
"html-keyboard-response","21","425928","0.0-7.0-6.1","5c519ec789254700019f7934","","","","","","null","<img class=left_person src='images/persons/person2.jpg'><img class=reward src='images/zero_coins.png'><img class=product src='images/products/book.jpg'>","null","","","practice","show_reward2","1","0","1","2","1","1","0","","","","","","","",""
"html-keyboard-response","22","428465","0.0-7.0-0.2","5c519ec789254700019f7934","","","","","","2384","<img class=left_person src='images/persons/person1.jpg'><img class=right_person src='images/persons/person2.jpg'><div class=""fixation"">+</div>","k","","","practice","choice","2","","","","","","","","","","","","","",""
"html-keyboard-response","23","429218","0.0-7.0-1.2","5c519ec789254700019f7934","","","","","","null","<img class=right_person src='images/persons/person2.jpg'><div class=""fixation"">+</div>","null","","","practice","show_choice","2","1","1","","","","","","","","","","","",""
"html-keyboard-response","24","429985","0.0-7.0-2.2","5c519ec789254700019f7934","","","","","","null","<img class=right_person src='images/persons/person2.jpg'><img class=product src='images/products/cake.jpg'><div class=""fixation"">+</div>","null","","","practice","show_product1","2","","","2","","","","","","","","","","",""
"html-keyboard-response","25","430995","0.0-7.0-3.2","5c519ec789254700019f7934","","","","","","null","<img class=right_person src='images/persons/person2.jpg'><img class=reward src='images/one_coin.png'><img class=product src='images/products/cake.jpg'>","null","","","practice","show_reward1","2","","","2","1","","","","","","","","","",""
"html-keyboard-response","26","431762","0.0-7.0-4.2","5c519ec789254700019f7934","","","","","","null","<img class=right_person src='images/persons/person2.jpg'><div class=""fixation"">+</div>","null","","","practice","show_choice","2","1","1","","","","","","","","","","","",""
"html-keyboard-response","27","432520","0.0-7.0-5.2","5c519ec789254700019f7934","","","","","","null","<img class=right_person src='images/persons/person2.jpg'><img class=product src='images/products/book.jpg'><div class=""fixation"">+</div>","null","","","practice","show_product2","2","","","","","1","","","","","","","","",""
"html-keyboard-response","28","433527","0.0-7.0-6.2","5c519ec789254700019f7934","","","","","","null","<img class=right_person src='images/persons/person2.jpg'><img class=reward src='images/one_coin.png'><img class=product src='images/products/book.jpg'>","null","","","practice","show_reward2","2","1","1","2","1","1","1","","","","","","","",""
"html-keyboard-response","29","435640","0.0-7.0-0.3","5c519ec789254700019f7934","","","","","","1960","<img class=left_person src='images/persons/person5.jpg'><img class=right_person src='images/persons/person4.jpg'><div class=""fixation"">+</div>","k","","","practice","choice","3","","","","","","","","","","","","","",""
"html-keyboard-response","30","436404","0.0-7.0-1.3","5c519ec789254700019f7934","","","","","","null","<img class=right_person src='images/persons/person4.jpg'><div class=""fixation"">+</div>","null","","","practice","show_choice","3","1","3","","","","","","","","","","","",""
"html-keyboard-response","31","437166","0.0-7.0-2.3","5c519ec789254700019f7934","","","","","","null","<img class=right_person src='images/persons/person4.jpg'><img class=product src='images/products/printer.jpg'><div class=""fixation"">+</div>","null","","","practice","show_product1","3","","","4","","","","","","","","","","",""
"html-keyboard-response","32","438172","0.0-7.0-3.3","5c519ec789254700019f7934","","","","","","null","<img class=right_person src='images/persons/person4.jpg'><img class=reward src='images/one_coin.png'><img class=product src='images/products/printer.jpg'>","null","","","practice","show_reward1","3","","","4","1","","","","","","","","","",""
"html-keyboard-response","33","438936","0.0-7.0-4.3","5c519ec789254700019f7934","","","","","","null","<img class=right_person src='images/persons/person4.jpg'><div class=""fixation"">+</div>","null","","","practice","show_choice","3","1","3","","","","","","","","","","","",""
"html-keyboard-response","34","439699","0.0-7.0-5.3","5c519ec789254700019f7934","","","","","","null","<img class=right_person src='images/persons/person4.jpg'><img class=product src='images/products/necklace.jpg'><div class=""fixation"">+</div>","null","","","practice","show_product2","3","","","","","3","","","","","","","","",""
"html-keyboard-response","35","440705","0.0-7.0-6.3","5c519ec789254700019f7934","","","","","","null","<img class=right_person src='images/persons/person4.jpg'><img class=reward src='images/zero_coins.png'><img class=product src='images/products/necklace.jpg'>","null","","","practice","show_reward2","3","1","3","4","1","3","0","","","","","","","",""
"html-keyboard-response","36","444170","0.0-7.0-0.4","5c519ec789254700019f7934","","","","","","3306","<img class=left_person src='images/persons/person4.jpg'><img class=right_person src='images/persons/person3.jpg'><div class=""fixation"">+</div>","s","","","practice","choice","4","","","","","","","","","","","","","",""
"html-keyboard-response","37","444934","0.0-7.0-1.4","5c519ec789254700019f7934","","","","","","null","<img class=left_person src='images/persons/person4.jpg'><div class=""fixation"">+</div>","null","","","practice","show_choice","4","0","3","","","","","","","","","","","",""
"html-keyboard-response","38","445701","0.0-7.0-2.4","5c519ec789254700019f7934","","","","","","null","<img class=left_person src='images/persons/person4.jpg'><img class=product src='images/products/necklace.jpg'><div class=""fixation"">+</div>","null","","","practice","show_product1","4","","","3","","","","","","","","","","",""
"html-keyboard-response","39","446720","0.0-7.0-3.4","5c519ec789254700019f7934","","","","","","null","<img class=left_person src='images/persons/person4.jpg'><img class=reward src='images/zero_coins.png'><img class=product src='images/products/necklace.jpg'>","null","","","practice","show_reward1","4","","","3","0","","","","","","","","","",""
"html-keyboard-response","40","447486","0.0-7.0-4.4","5c519ec789254700019f7934","","","","","","null","<img class=left_person src='images/persons/person4.jpg'><div class=""fixation"">+</div>","null","","","practice","show_choice","4","0","3","","","","","","","","","","","",""
"html-keyboard-response","41","448252","0.0-7.0-5.4","5c519ec789254700019f7934","","","","","","null","<img class=left_person src='images/persons/person4.jpg'><img class=product src='images/products/printer.jpg'><div class=""fixation"">+</div>","null","","","practice","show_product2","4","","","","","4","","","","","","","","",""
"html-keyboard-response","42","449256","0.0-7.0-6.4","5c519ec789254700019f7934","","","","","","null","<img class=left_person src='images/persons/person4.jpg'><img class=reward src='images/one_coin.png'><img class=product src='images/products/printer.jpg'>","null","","","practice","show_reward2","4","0","3","3","0","4","1","","","","","","","",""
"html-keyboard-response","43","452842","0.0-7.0-0.5","5c519ec789254700019f7934","","","","","","3431","<img class=left_person src='images/persons/person4.jpg'><img class=right_person src='images/persons/person5.jpg'><div class=""fixation"">+</div>","s","","","practice","choice","5","","","","","","","","","","","","","",""
"html-keyboard-response","44","453605","0.0-7.0-1.5","5c519ec789254700019f7934","","","","","","null","<img class=left_person src='images/persons/person4.jpg'><div class=""fixation"">+</div>","null","","","practice","show_choice","5","0","3","","","","","","","","","","","",""
"html-keyboard-response","45","454375","0.0-7.0-2.5","5c519ec789254700019f7934","","","","","","null","<img class=left_person src='images/persons/person4.jpg'><img class=product src='images/products/necklace.jpg'><div class=""fixation"">+</div>","null","","","practice","show_product1","5","","","3","","","","","","","","","","",""
"html-keyboard-response","46","455392","0.0-7.0-3.5","5c519ec789254700019f7934","","","","","","null","<img class=left_person src='images/persons/person4.jpg'><img class=reward src='images/zero_coins.png'><img class=product src='images/products/necklace.jpg'>","null","","","practice","show_reward1","5","","","3","0","","","","","","","","","",""
"html-keyboard-response","47","456153","0.0-7.0-4.5","5c519ec789254700019f7934","","","","","","null","<img class=left_person src='images/persons/person4.jpg'><div class=""fixation"">+</div>","null","","","practice","show_choice","5","0","3","","","","","","","","","","","",""
"html-keyboard-response","48","456918","0.0-7.0-5.5","5c519ec789254700019f7934","","","","","","null","<img class=left_person src='images/persons/person4.jpg'><img class=product src='images/products/printer.jpg'><div class=""fixation"">+</div>","null","","","practice","show_product2","5","","","","","4","","","","","","","","",""
"html-keyboard-response","49","457925","0.0-7.0-6.5","5c519ec789254700019f7934","","","","","","null","<img class=left_person src='images/persons/person4.jpg'><img class=reward src='images/zero_coins.png'><img class=product src='images/products/printer.jpg'>","null","","","practice","show_reward2","5","0","3","3","0","4","0","","","","","","","",""
"html-keyboard-response","50","459415","0.0-7.0-0.6","5c519ec789254700019f7934","","","","","","1335","<img class=left_person src='images/persons/person2.jpg'><img class=right_person src='images/persons/person3.jpg'><div class=""fixation"">+</div>","k","","","practice","choice","6","","","","","","","","","","","","","",""
"html-keyboard-response","51","460172","0.0-7.0-1.6","5c519ec789254700019f7934","","","","","","null","<img class=right_person src='images/persons/person3.jpg'><div class=""fixation"">+</div>","null","","","practice","show_choice","6","1","2","","","","","","","","","","","",""
"html-keyboard-response","52","460938","0.0-7.0-2.6","5c519ec789254700019f7934","","","","","","null","<img class=right_person src='images/persons/person3.jpg'><img class=product src='images/products/necklace.jpg'><div class=""fixation"">+</div>","null","","","practice","show_product1","6","","","3","","","","","","","","","","",""
"html-keyboard-response","53","461953","0.0-7.0-3.6","5c519ec789254700019f7934","","","","","","null","<img class=right_person src='images/persons/person3.jpg'><img class=reward src='images/one_coin.png'><img class=product src='images/products/necklace.jpg'>","null","","","practice","show_reward1","6","","","3","1","","","","","","","","","",""
"html-keyboard-response","54","462720","0.0-7.0-4.6","5c519ec789254700019f7934","","","","","","null","<img class=right_person src='images/persons/person3.jpg'><div class=""fixation"">+</div>","null","","","practice","show_choice","6","1","2","","","","","","","","","","","",""
"html-keyboard-response","55","463482","0.0-7.0-5.6","5c519ec789254700019f7934","","","","","","null","<img class=right_person src='images/persons/person3.jpg'><img class=product src='images/products/cake.jpg'><div class=""fixation"">+</div>","null","","","practice","show_product2","6","","","","","2","","","","","","","","",""
"html-keyboard-response","56","464493","0.0-7.0-6.6","5c519ec789254700019f7934","","","","","","null","<img class=right_person src='images/persons/person3.jpg'><img class=reward src='images/zero_coins.png'><img class=product src='images/products/cake.jpg'>","null","","","practice","show_reward2","6","1","2","3","1","2","0","","","","","","","",""
"html-keyboard-response","57","467069","0.0-7.0-0.7","5c519ec789254700019f7934","","","","","","2423","<img class=left_person src='images/persons/person2.jpg'><img class=right_person src='images/persons/person1.jpg'><div class=""fixation"">+</div>","k","","","practice","choice","7","","","","","","","","","","","","","",""
"html-keyboard-response","58","467837","0.0-7.0-1.7","5c519ec789254700019f7934","","","","","","null","<img class=right_person src='images/persons/person1.jpg'><div class=""fixation"">+</div>","null","","","practice","show_choice","7","1","0","","","","","","","","","","","",""
"html-keyboard-response","59","468604","0.0-7.0-2.7","5c519ec789254700019f7934","","","","","","null","<img class=right_person src='images/persons/person1.jpg'><img class=product src='images/products/bicycle.jpg'><div class=""fixation"">+</div>","null","","","practice","show_product1","7","","","0","","","","","","","","","","",""
"html-keyboard-response","60","469621","0.0-7.0-3.7","5c519ec789254700019f7934","","","","","","null","<img class=right_person src='images/persons/person1.jpg'><img class=reward src='images/one_coin.png'><img class=product src='images/products/bicycle.jpg'>","null","","","practice","show_reward1","7","","","0","1","","","","","","","","","",""
"html-keyboard-response","61","470381","0.0-7.0-4.7","5c519ec789254700019f7934","","","","","","null","<img class=right_person src='images/persons/person1.jpg'><div class=""fixation"">+</div>","null","","","practice","show_choice","7","1","0","","","","","","","","","","","",""
"html-keyboard-response","62","471138","0.0-7.0-5.7","5c519ec789254700019f7934","","","","","","null","<img class=right_person src='images/persons/person1.jpg'><img class=product src='images/products/book.jpg'><div class=""fixation"">+</div>","null","","","practice","show_product2","7","","","","","1","","","","","","","","",""
"html-keyboard-response","63","472145","0.0-7.0-6.7","5c519ec789254700019f7934","","","","","","null","<img class=right_person src='images/persons/person1.jpg'><img class=reward src='images/zero_coins.png'><img class=product src='images/products/book.jpg'>","null","","","practice","show_reward2","7","1","0","0","1","1","0","","","","","","","",""
"html-keyboard-response","64","474220","0.0-7.0-0.8","5c519ec789254700019f7934","","","","","","1907","<img class=left_person src='images/persons/person4.jpg'><img class=right_person src='images/persons/person3.jpg'><div class=""fixation"">+</div>","s","","","practice","choice","8","","","","","","","","","","","","","",""
"html-keyboard-response","65","474981","0.0-7.0-1.8","5c519ec789254700019f7934","","","","","","null","<img class=left_person src='images/persons/person4.jpg'><div class=""fixation"">+</div>","null","","","practice","show_choice","8","0","3","","","","","","","","","","","",""
"html-keyboard-response","66","475738","0.0-7.0-2.8","5c519ec789254700019f7934","","","","","","null","<img class=left_person src='images/persons/person4.jpg'><img class=product src='images/products/printer.jpg'><div class=""fixation"">+</div>","null","","","practice","show_product1","8","","","4","","","","","","","","","","",""
"html-keyboard-response","67","476741","0.0-7.0-3.8","5c519ec789254700019f7934","","","","","","null","<img class=left_person src='images/persons/person4.jpg'><img class=reward src='images/one_coin.png'><img class=product src='images/products/printer.jpg'>","null","","","practice","show_reward1","8","","","4","1","","","","","","","","","",""
"html-keyboard-response","68","477500","0.0-7.0-4.8","5c519ec789254700019f7934","","","","","","null","<img class=left_person src='images/persons/person4.jpg'><div class=""fixation"">+</div>","null","","","practice","show_choice","8","0","3","","","","","","","","","","","",""
"html-keyboard-response","69","478265","0.0-7.0-5.8","5c519ec789254700019f7934","","","","","","null","<img class=left_person src='images/persons/person4.jpg'><img class=product src='images/products/necklace.jpg'><div class=""fixation"">+</div>","null","","","practice","show_product2","8","","","","","3","","","","","","","","",""
"html-keyboard-response","70","479271","0.0-7.0-6.8","5c519ec789254700019f7934","","","","","","null","<img class=left_person src='images/persons/person4.jpg'><img class=reward src='images/zero_coins.png'><img class=product src='images/products/necklace.jpg'>","null","","","practice","show_reward2","8","0","3","4","1","3","0","","","","","","","",""
"html-keyboard-response","71","480657","0.0-7.0-0.9","5c519ec789254700019f7934","","","","","","1225","<img class=left_person src='images/persons/person4.jpg'><img class=right_person src='images/persons/person5.jpg'><div class=""fixation"">+</div>","k","","","practice","choice","9","","","","","","","","","","","","","",""
"html-keyboard-response","72","481419","0.0-7.0-1.9","5c519ec789254700019f7934","","","","","","null","<img class=right_person src='images/persons/person5.jpg'><div class=""fixation"">+</div>","null","","","practice","show_choice","9","1","4","","","","","","","","","","","",""
"html-keyboard-response","73","482182","0.0-7.0-2.9","5c519ec789254700019f7934","","","","","","null","<img class=right_person src='images/persons/person5.jpg'><img class=product src='images/products/bicycle.jpg'><div class=""fixation"">+</div>","null","","","practice","show_product1","9","","","0","","","","","","","","","","",""
"html-keyboard-response","74","483193","0.0-7.0-3.9","5c519ec789254700019f7934","","","","","","null","<img class=right_person src='images/persons/person5.jpg'><img class=reward src='images/one_coin.png'><img class=product src='images/products/bicycle.jpg'>","null","","","practice","show_reward1","9","","","0","1","","","","","","","","","",""
"html-keyboard-response","75","483948","0.0-7.0-4.9","5c519ec789254700019f7934","","","","","","null","<img class=right_person src='images/persons/person5.jpg'><div class=""fixation"">+</div>","null","","","practice","show_choice","9","1","4","","","","","","","","","","","",""
"html-keyboard-response","76","484705","0.0-7.0-5.9","5c519ec789254700019f7934","","","","","","null","<img class=right_person src='images/persons/person5.jpg'><img class=product src='images/products/printer.jpg'><div class=""fixation"">+</div>","null","","","practice","show_product2","9","","","","","4","","","","","","","","",""
"html-keyboard-response","77","485709","0.0-7.0-6.9","5c519ec789254700019f7934","","","","","","null","<img class=right_person src='images/persons/person5.jpg'><img class=reward src='images/one_coin.png'><img class=product src='images/products/printer.jpg'>","null","","","practice","show_reward2","9","1","4","0","1","4","1","","","","","","","",""
"html-keyboard-response","78","489844","0.0-8.0","5c519ec789254700019f7934","","","","","","3967","<div> Good job! Practice completed. <br> <br> We will now move on to the real game. Do your best to win as much reward as you can. Good luck!<br><br> <b>Press any key to continue.</b></div>"," ","","","","","","","","","","","","","","","","","","",""
"html-keyboard-response","79","530775","0.0-9.0-0.0","5c519ec789254700019f7934","","","","","","39920","<p><u>We will now start period number<b> 1 out of 4</b> of your business</u></p>Each period will include 50 days after which you will have a short break and then continue from the exact same point. <br> <br><p style=""text-align: left"">Use the LEFT or RIGHT response keys (""s"" or ""k"", in correspondence) to make your selection. <br> Please do your best to win as many coins as possible!<br> </p><p style=""text-align: left""><b>Remember that:</b> <br> 1) The demand for each product is specific to that product alone <br> 2) The demand for each product may gradually change over time </p><p> <b> <u>Please note that participants who engage with the task and pay close attention earn a much higher bonus than participants who respond randomly</u> </b> </p><p><b>Press SPACE to start</b></p>"," ","","","","","","","","","","","","","","","","","","",""
"html-keyboard-response","80","532573","0.0-9.0-1.0-0.0","5c519ec789254700019f7934","","","","","","778","<img class=left_person src='images/persons/person2.jpg'><img class=right_person src='images/persons/person1.jpg'><div class=""fixation"">+</div>","s","","","exp","choice","0","","","","","","","","","","","","","",""
"html-keyboard-response","81","533330","0.0-9.0-1.0-1.0","5c519ec789254700019f7934","","","","","","null","<img class=left_person src='images/persons/person2.jpg'><div class=""fixation"">+</div>","null","","","exp","show_choice","0","0","1","","","","","","","","","","","",""
"html-keyboard-response","82","534099","0.0-9.0-1.0-2.0","5c519ec789254700019f7934","","","","","","null","<img class=left_person src='images/persons/person2.jpg'><img class=product src='images/products/cake.jpg'><div class=""fixation"">+</div>","null","","","exp","show_product1","0","","","2","","","","","","","","","","",""
"html-keyboard-response","83","535104","0.0-9.0-1.0-3.0","5c519ec789254700019f7934","","","","","","null","<img class=left_person src='images/persons/person2.jpg'><img class=reward src='images/zero_coins.png'><img class=product src='images/products/cake.jpg'>","null","","","exp","show_reward1","0","","","2","0","","","","","","","","","",""
"html-keyboard-response","84","535869","0.0-9.0-1.0-4.0","5c519ec789254700019f7934","","","","","","null","<img class=left_person src='images/persons/person2.jpg'><div class=""fixation"">+</div>","null","","","exp","show_choice","0","0","1","","","","","","","","","","","",""
"html-keyboard-response","85","536633","0.0-9.0-1.0-5.0","5c519ec789254700019f7934","","","","","","null","<img class=left_person src='images/persons/person2.jpg'><img class=product src='images/products/book.jpg'><div class=""fixation"">+</div>","null","","","exp","show_product2","0","","","2","","","","","","","","","","",""
"html-keyboard-response","86","537639","0.0-9.0-1.0-6.0","5c519ec789254700019f7934","","","","","","null","<img class=left_person src='images/persons/person2.jpg'><img class=reward src='images/zero_coins.png'><img class=product src='images/products/book.jpg'>","null","","","exp","show_reward2","0","0","1","2","0","1","0","1","0","0.720539982244372","0.233712394046597","0.406507461029105","0.55041249524802","0.576851323992014","0"
"html-keyboard-response","87","539218","0.0-9.0-1.0-0.1","5c519ec789254700019f7934","","","","","","1425","<img class=left_person src='images/persons/person3.jpg'><img class=right_person src='images/persons/person2.jpg'><div class=""fixation"">+</div>","s","","","exp","choice","1","","","","","","","","","","","","","",""
"html-keyboard-response","88","539980","0.0-9.0-1.0-1.1","5c519ec789254700019f7934","","","","","","null","<img class=left_person src='images/persons/person3.jpg'><div class=""fixation"">+</div>","null","","","exp","show_choice","1","0","2","","","","","","","","","","","",""
"html-keyboard-response","89","540734","0.0-9.0-1.0-2.1","5c519ec789254700019f7934","","","","","","null","<img class=left_person src='images/persons/person3.jpg'><img class=product src='images/products/cake.jpg'><div class=""fixation"">+</div>","null","","","exp","show_product1","1","","","2","","","","","","","","","","",""
"html-keyboard-response","90","541737","0.0-9.0-1.0-3.1","5c519ec789254700019f7934","","","","","","null","<img class=left_person src='images/persons/person3.jpg'><img class=reward src='images/one_coin.png'><img class=product src='images/products/cake.jpg'>","null","","","exp","show_reward1","1","","","2","1","","","","","","","","","",""
"html-keyboard-response","91","542498","0.0-9.0-1.0-4.1","5c519ec789254700019f7934","","","","","","null","<img class=left_person src='images/persons/person3.jpg'><div class=""fixation"">+</div>","null","","","exp","show_choice","1","0","2","","","","","","","","","","","",""
"html-keyboard-response","92","543250","0.0-9.0-1.0-5.1","5c519ec789254700019f7934","","","","","","null","<img class=left_person src='images/persons/person3.jpg'><img class=product src='images/products/necklace.jpg'><div class=""fixation"">+</div>","null","","","exp","show_product2","1","","","2","","","","","","","","","","",""
"html-keyboard-response","93","544258","0.0-9.0-1.0-6.1","5c519ec789254700019f7934","","","","","","null","<img class=left_person src='images/persons/person3.jpg'><img class=reward src='images/one_coin.png'><img class=product src='images/products/necklace.jpg'>","null","","","exp","show_reward2","1","0","2","2","1","3","1","2","1","0.737182030067099","0.263553242815869","0.41178953875257","0.575343218095664","0.599936044086846","0"
"html-keyboard-response","94","545437","0.0-9.0-1.0-0.2","5c519ec789254700019f7934","","","","","","1026","<img class=left_person src='images/persons/person1.jpg'><img class=right_person src='images/persons/person2.jpg'><div class=""fixation"">+</div>","s","","","exp","choice","2","","","","","","","","","","","","","",""
"html-keyboard-response","95","546200","0.0-9.0-1.0-1.2","5c519ec789254700019f7934","","","","","","null","<img class=left_person src='images/persons/person1.jpg'><div class=""fixation"">+</div>","null","","","exp","show_choice","2","0","0","","","","","","","","","","","",""
"html-keyboard-response","96","546967","0.0-9.0-1.0-2.2","5c519ec789254700019f7934","","","","","","null","<img class=left_person src='images/persons/person1.jpg'><img class=product src='images/products/bicycle.jpg'><div class=""fixation"">+</div>","null","","","exp","show_product1","2","","","0","","","","","","","","","","",""
"html-keyboard-response","97","547972","0.0-9.0-1.0-3.2","5c519ec789254700019f7934","","","","","","null","<img class=left_person src='images/persons/person1.jpg'><img class=reward src='images/one_coin.png'><img class=product src='images/products/bicycle.jpg'>","null","","","exp","show_reward1","2","","","0","1","","","","","","","","","",""
"html-keyboard-response","98","548733","0.0-9.0-1.0-4.2","5c519ec789254700019f7934","","","","","","null","<img class=left_person src='images/persons/person1.jpg'><div class=""fixation"">+</div>","null","","","exp","show_choice","2","0","0","","","","","","","","","","","",""
"html-keyboard-response","99","549489","0.0-9.0-1.0-5.2","5c519ec789254700019f7934","","","","","","null","<img class=left_person src='images/persons/person1.jpg'><img class=product src='images/products/book.jpg'><div class=""fixation"">+</div>","null","","","exp","show_product2","2","","","0","","","","","","","","","","",""
"html-keyboard-response","100","550505","0.0-9.0-1.0-6.2","5c519ec789254700019f7934","","","","","","null","<img class=left_person src='images/persons/person1.jpg'><img class=reward src='images/zero_coins.png'><img class=product src='images/products/book.jpg'>","null","","","exp","show_reward2","2","0","0","0","1","1","0","0","1","0.796500731166472","0.220854074063116","0.367233408750959","0.56844264687713","0.635615934637238","0"
"html-keyboard-response","101","552412","0.0-9.0-1.0-0.3","5c519ec789254700019f7934","","","","","","1749","<img class=left_person src='images/persons/person1.jpg'><img class=right_person src='images/persons/person5.jpg'><div class=""fixation"">+</div>","k","","","exp","choice","3","","","","","","","","","","","","","",""
"html-keyboard-response","102","553166","0.0-9.0-1.0-1.3","5c519ec789254700019f7934","","","","","","null","<img class=right_person src='images/persons/person5.jpg'><div class=""fixation"">+</div>","null","","","exp","show_choice","3","1","4","","","","","","","","","","","",""
"html-keyboard-response","103","553918","0.0-9.0-1.0-2.3","5c519ec789254700019f7934","","","","","","null","<img class=right_person src='images/persons/person5.jpg'><img class=product src='images/products/printer.jpg'><div class=""fixation"">+</div>","null","","","exp","show_product1","3","","","4","","","","","","","","","","",""
"html-keyboard-response","104","554923","0.0-9.0-1.0-3.3","5c519ec789254700019f7934","","","","","","null","<img class=right_person src='images/persons/person5.jpg'><img class=reward src='images/one_coin.png'><img class=product src='images/products/printer.jpg'>","null","","","exp","show_reward1","3","","","4","1","","","","","","","","","",""
"html-keyboard-response","105","555677","0.0-9.0-1.0-4.3","5c519ec789254700019f7934","","","","","","null","<img class=right_person src='images/persons/person5.jpg'><div class=""fixation"">+</div>","null","","","exp","show_choice","3","1","4","","","","","","","","","","","",""
"html-keyboard-response","106","556433","0.0-9.0-1.0-5.3","5c519ec789254700019f7934","","","","","","null","<img class=right_person src='images/persons/person5.jpg'><img class=product src='images/products/bicycle.jpg'><div class=""fixation"">+</div>","null","","","exp","show_product2","3","","","4","","","","","","","","","","",""
"html-keyboard-response","107","557436","0.0-9.0-1.0-6.3","5c519ec789254700019f7934","","","","","","null","<img class=right_person src='images/persons/person5.jpg'><img class=reward src='images/one_coin.png'><img class=product src='images/products/bicycle.jpg'>","null","","","exp","show_reward2","3","1","4","4","1","0","1","0","4","0.78032486873618","0.237780580491854","0.364328047402342","0.533038210254335","0.661922717157868","0"
"html-keyboard-response","108","559169","0.0-9.0-1.0-0.4","5c519ec789254700019f7934","","","","","","1578","<img class=left_person src='images/persons/person4.jpg'><img class=right_person src='images/persons/person3.jpg'><div class=""fixation"">+</div>","s","","","exp","choice","4","","","","","","","","","","","","","",""
"html-keyboard-response","109","559934","0.0-9.0-1.0-1.4","5c519ec789254700019f7934","","","","","","null","<img class=left_person src='images/persons/person4.jpg'><div class=""fixation"">+</div>","null","","","exp","show_choice","4","0","3","","","","","","","","","","","",""
"html-keyboard-response","110","560698","0.0-9.0-1.0-2.4","5c519ec789254700019f7934","","","","","","null","<img class=left_person src='images/persons/person4.jpg'><img class=product src='images/products/printer.jpg'><div class=""fixation"">+</div>","null","","","exp","show_product1","4","","","4","","","","","","","","","","",""
"html-keyboard-response","111","561704","0.0-9.0-1.0-3.4","5c519ec789254700019f7934","","","","","","null","<img class=left_person src='images/persons/person4.jpg'><img class=reward src='images/zero_coins.png'><img class=product src='images/products/printer.jpg'>","null","","","exp","show_reward1","4","","","4","0","","","","","","","","","",""
"html-keyboard-response","112","562469","0.0-9.0-1.0-4.4","5c519ec789254700019f7934","","","","","","null","<img class=left_person src='images/persons/person4.jpg'><div class=""fixation"">+</div>","null","","","exp","show_choice","4","0","3","","","","","","","","","","","",""
"html-keyboard-response","113","563233","0.0-9.0-1.0-5.4","5c519ec789254700019f7934","","","","","","null","<img class=left_person src='images/persons/person4.jpg'><img class=product src='images/products/necklace.jpg'><div class=""fixation"">+</div>","null","","","exp","show_product2","4","","","4","","","","","","","","","","",""
"html-keyboard-response","114","564239","0.0-9.0-1.0-6.4","5c519ec789254700019f7934","","","","","","null","<img class=left_person src='images/persons/person4.jpg'><img class=reward src='images/one_coin.png'><img class=product src='images/products/necklace.jpg'>","null","","","exp","show_reward2","4","0","3","4","0","3","1","3","2","0.787632352678371","0.211158704539782","0.360288866024515","0.5504750437236","0.672817237609587","0"
"html-keyboard-response","115","565435","0.0-9.0-1.0-0.5","5c519ec789254700019f7934","","","","","","1041","<img class=left_person src='images/persons/person3.jpg'><img class=right_person src='images/persons/person2.jpg'><div class=""fixation"">+</div>","s","","","exp","choice","5","","","","","","","","","","","","","",""
"html-keyboard-response","116","566200","0.0-9.0-1.0-1.5","5c519ec789254700019f7934","","","","","","null","<img class=left_person src='images/persons/person3.jpg'><div class=""fixation"">+</div>","null","","","exp","show_choice","5","0","2","","","","","","","","","","","",""
"html-keyboard-response","117","566952","0.0-9.0-1.0-2.5","5c519ec789254700019f7934","","","","","","null","<img class=left_person src='images/persons/person3.jpg'><img class=product src='images/products/necklace.jpg'><div class=""fixation"">+</div>","null","","","exp","show_product1","5","","","3","","","","","","","","","","",""
"html-keyboard-response","118","567954","0.0-9.0-1.0-3.5","5c519ec789254700019f7934","","","","","","null","<img class=left_person src='images/persons/person3.jpg'><img class=reward src='images/one_coin.png'><img class=product src='images/products/necklace.jpg'>","null","","","exp","show_reward1","5","","","3","1","","","","","","","","","",""
"html-keyboard-response","119","568716","0.0-9.0-1.0-4.5","5c519ec789254700019f7934","","","","","","null","<img class=left_person src='images/persons/person3.jpg'><div class=""fixation"">+</div>","null","","","exp","show_choice","5","0","2","","","","","","","","","","","",""
"html-keyboard-response","120","569483","0.0-9.0-1.0-5.5","5c519ec789254700019f7934","","","","","","null","<img class=left_person src='images/persons/person3.jpg'><img class=product src='images/products/cake.jpg'><div class=""fixation"">+</div>","null","","","exp","show_product2","5","","","3","","","","","","","","","","",""
"html-keyboard-response","121","570499","0.0-9.0-1.0-6.5","5c519ec789254700019f7934","","","","","","null","<img class=left_person src='images/persons/person3.jpg'><img class=reward src='images/zero_coins.png'><img class=product src='images/products/cake.jpg'>","null","","","exp","show_reward2","5","0","2","3","1","2","0","2","1","0.800117673381618","0.207187222475313","0.359501368301836","0.567098297392421","0.647600719490485","0"
"html-keyboard-response","122","572370","0.0-9.0-1.0-0.6","5c519ec789254700019f7934","","","","","","1710","<img class=left_person src='images/persons/person2.jpg'><img class=right_person src='images/persons/person3.jpg'><div class=""fixation"">+</div>","s","","","exp","choice","6","","","","","","","","","","","","","",""
"html-keyboard-response","123","573136","0.0-9.0-1.0-1.6","5c519ec789254700019f7934","","","","","","null","<img class=left_person src='images/persons/person2.jpg'><div class=""fixation"">+</div>","null","","","exp","show_choice","6","0","1","","","","","","","","","","","",""
"html-keyboard-response","124","573896","0.0-9.0-1.0-2.6","5c519ec789254700019f7934","","","","","","null","<img class=left_person src='images/persons/person2.jpg'><img class=product src='images/products/cake.jpg'><div class=""fixation"">+</div>","null","","","exp","show_product1","6","","","2","","","","","","","","","","",""
"html-keyboard-response","125","574906","0.0-9.0-1.0-3.6","5c519ec789254700019f7934","","","","","","null","<img class=left_person src='images/persons/person2.jpg'><img class=reward src='images/zero_coins.png'><img class=product src='images/products/cake.jpg'>","null","","","exp","show_reward1","6","","","2","0","","","","","","","","","",""
"html-keyboard-response","126","575664","0.0-9.0-1.0-4.6","5c519ec789254700019f7934","","","","","","null","<img class=left_person src='images/persons/person2.jpg'><div class=""fixation"">+</div>","null","","","exp","show_choice","6","0","1","","","","","","","","","","","",""
"html-keyboard-response","127","576432","0.0-9.0-1.0-5.6","5c519ec789254700019f7934","","","","","","null","<img class=left_person src='images/persons/person2.jpg'><img class=product src='images/products/book.jpg'><div class=""fixation"">+</div>","null","","","exp","show_product2","6","","","2","","","","","","","","","","",""
"html-keyboard-response","128","577449","0.0-9.0-1.0-6.6","5c519ec789254700019f7934","","","","","","null","<img class=left_person src='images/persons/person2.jpg'><img class=reward src='images/zero_coins.png'><img class=product src='images/products/book.jpg'>","null","","","exp","show_reward2","6","0","1","2","0","1","0","1","2","0.85","0.212765961845424","0.316553412408368","0.530938785006247","0.616831734252712","0"
"html-keyboard-response","129","579486","0.0-9.0-1.0-0.7","5c519ec789254700019f7934","","","","","","1877","<img class=left_person src='images/persons/person1.jpg'><img class=right_person src='images/persons/person5.jpg'><div class=""fixation"">+</div>","k","","","exp","choice","7","","","","","","","","","","","","","",""
"html-keyboard-response","130","580243","0.0-9.0-1.0-1.7","5c519ec789254700019f7934","","","","","","null","<img class=right_person src='images/persons/person5.jpg'><div class=""fixation"">+</div>","null","","","exp","show_choice","7","1","4","","","","","","","","","","","",""
"html-keyboard-response","131","580999","0.0-9.0-1.0-2.7","5c519ec789254700019f7934","","","","","","null","<img class=right_person src='images/persons/person5.jpg'><img class=product src='images/products/printer.jpg'><div class=""fixation"">+</div>","null","","","exp","show_product1","7","","","4","","","","","","","","","","",""
"html-keyboard-response","132","582013","0.0-9.0-1.0-3.7","5c519ec789254700019f7934","","","","","","null","<img class=right_person src='images/persons/person5.jpg'><img class=reward src='images/zero_coins.png'><img class=product src='images/products/printer.jpg'>","null","","","exp","show_reward1","7","","","4","0","","","","","","","","","",""
"html-keyboard-response","133","582777","0.0-9.0-1.0-4.7","5c519ec789254700019f7934","","","","","","null","<img class=right_person src='images/persons/person5.jpg'><div class=""fixation"">+</div>","null","","","exp","show_choice","7","1","4","","","","","","","","","","","",""
"html-keyboard-response","134","583530","0.0-9.0-1.0-5.7","5c519ec789254700019f7934","","","","","","null","<img class=right_person src='images/persons/person5.jpg'><img class=product src='images/products/bicycle.jpg'><div class=""fixation"">+</div>","null","","","exp","show_product2","7","","","4","","","","","","","","","","",""
"html-keyboard-response","135","584535","0.0-9.0-1.0-6.7","5c519ec789254700019f7934","","","","","","null","<img class=right_person src='images/persons/person5.jpg'><img class=reward src='images/one_coin.png'><img class=product src='images/products/bicycle.jpg'>","null","","","exp","show_reward2","7","1","4","4","0","0","1","0","4","0.849280895531324","0.226297975088947","0.358579366230634","0.500567313131503","0.637221088880313","0"
"html-keyboard-response","136","585238","0.0-9.0-1.0-0.8","5c519ec789254700019f7934","","","","","","546","<img class=left_person src='images/persons/person1.jpg'><img class=right_person src='images/persons/person5.jpg'><div class=""fixation"">+</div>","s","","","exp","choice","8","","","","","","","","","","","","","",""
"html-keyboard-response","137","585997","0.0-9.0-1.0-1.8","5c519ec789254700019f7934","","","","","","null","<img class=left_person src='images/persons/person1.jpg'><div class=""fixation"">+</div>","null","","","exp","show_choice","8","0","0","","","","","","","","","","","",""
"html-keyboard-response","138","586760","0.0-9.0-1.0-2.8","5c519ec789254700019f7934","","","","","","null","<img class=left_person src='images/persons/person1.jpg'><img class=product src='images/products/bicycle.jpg'><div class=""fixation"">+</div>","null","","","exp","show_product1","8","","","0","","","","","","","","","","",""
"html-keyboard-response","139","587765","0.0-9.0-1.0-3.8","5c519ec789254700019f7934","","","","","","null","<img class=left_person src='images/persons/person1.jpg'><img class=reward src='images/one_coin.png'><img class=product src='images/products/bicycle.jpg'>","null","","","exp","show_reward1","8","","","0","1","","","","","","","","","",""
"html-keyboard-response","140","588528","0.0-9.0-1.0-4.8","5c519ec789254700019f7934","","","","","","null","<img class=left_person src='images/persons/person1.jpg'><div class=""fixation"">+</div>","null","","","exp","show_choice","8","0","0","","","","","","","","","","","",""
"html-keyboard-response","141","589282","0.0-9.0-1.0-5.8","5c519ec789254700019f7934","","","","","","null","<img class=left_person src='images/persons/person1.jpg'><img class=product src='images/products/book.jpg'><div class=""fixation"">+</div>","null","","","exp","show_product2","8","","","0","","","","","","","","","","",""
"html-keyboard-response","142","590299","0.0-9.0-1.0-6.8","5c519ec789254700019f7934","","","","","","null","<img class=left_person src='images/persons/person1.jpg'><img class=reward src='images/zero_coins.png'><img class=product src='images/products/book.jpg'>","null","","","exp","show_reward2","8","0","0","0","1","1","0","0","4","0.85","0.210898320619758","0.340382705298176","0.448344390620293","0.539940821588639","0"
"html-keyboard-response","143","591500","0.0-9.0-1.0-0.9","5c519ec789254700019f7934","","","","","","1041","<img class=left_person src='images/persons/person5.jpg'><img class=right_person src='images/persons/person1.jpg'><div class=""fixation"">+</div>","k","","","exp","choice","9","","","","","","","","","","","","","",""
"html-keyboard-response","144","592262","0.0-9.0-1.0-1.9","5c519ec789254700019f7934","","","","","","null","<img class=right_person src='images/persons/person1.jpg'><div class=""fixation"">+</div>","null","","","exp","show_choice","9","1","0","","","","","","","","","","","",""
"html-keyboard-response","145","593028","0.0-9.0-1.0-2.9","5c519ec789254700019f7934","","","","","","null","<img class=right_person src='images/persons/person1.jpg'><img class=product src='images/products/book.jpg'><div class=""fixation"">+</div>","null","","","exp","show_product1","9","","","1","","","","","","","","","","",""
"html-keyboard-response","146","594041","0.0-9.0-1.0-3.9","5c519ec789254700019f7934","","","","","","null","<img class=right_person src='images/persons/person1.jpg'><img class=reward src='images/one_coin.png'><img class=product src='images/products/book.jpg'>","null","","","exp","show_reward1","9","","","1","1","","","","","","","","","",""
"html-keyboard-response","147","594799","0.0-9.0-1.0-4.9","5c519ec789254700019f7934","","","","","","null","<img class=right_person src='images/persons/person1.jpg'><div class=""fixation"">+</div>","null","","","exp","show_choice","9","1","0","","","","","","","","","","","",""
"html-keyboard-response","148","595565","0.0-9.0-1.0-5.9","5c519ec789254700019f7934","","","","","","null","<img class=right_person src='images/persons/person1.jpg'><img class=product src='images/products/bicycle.jpg'><div class=""fixation"">+</div>","null","","","exp","show_product2","9","","","1","","","","","","","","","","",""
"html-keyboard-response","149","596569","0.0-9.0-1.0-6.9","5c519ec789254700019f7934","","","","","","null","<img class=right_person src='images/persons/person1.jpg'><img class=reward src='images/one_coin.png'><img class=product src='images/products/bicycle.jpg'>","null","","","exp","show_reward2","9","1","0","1","1","0","1","4","0","0.839246926957122","0.20428747029721","0.318076783405522","0.472027678162431","0.620636008019719","0"
"html-keyboard-response","150","598223","0.0-9.0-1.0-0.10","5c519ec789254700019f7934","","","","","","1496","<img class=left_person src='images/persons/person2.jpg'><img class=right_person src='images/persons/person3.jpg'><div class=""fixation"">+</div>","k","","","exp","choice","10","","","","","","","","","","","","","",""
"html-keyboard-response","151","598982","0.0-9.0-1.0-1.10","5c519ec789254700019f7934","","","","","","null","<img class=right_person src='images/persons/person3.jpg'><div class=""fixation"">+</div>","null","","","exp","show_choice","10","1","2","","","","","","","","","","","",""
"html-keyboard-response","152","599746","0.0-9.0-1.0-2.10","5c519ec789254700019f7934","","","","","","null","<img class=right_person src='images/persons/person3.jpg'><img class=product src='images/products/cake.jpg'><div class=""fixation"">+</div>","null","","","exp","show_product1","10","","","2","","","","","","","","","","",""
"html-keyboard-response","153","600756","0.0-9.0-1.0-3.10","5c519ec789254700019f7934","","","","","","null","<img class=right_person src='images/persons/person3.jpg'><img class=reward src='images/one_coin.png'><img class=product src='images/products/cake.jpg'>","null","","","exp","show_reward1","10","","","2","1","","","","","","","","","",""
"html-keyboard-response","154","601517","0.0-9.0-1.0-4.10","5c519ec789254700019f7934","","","","","","null","<img class=right_person src='images/persons/person3.jpg'><div class=""fixation"">+</div>","null","","","exp","show_choice","10","1","2","","","","","","","","","","","",""
"html-keyboard-response","155","602269","0.0-9.0-1.0-5.10","5c519ec789254700019f7934","","","","","","null","<img class=right_person src='images/persons/person3.jpg'><img class=product src='images/products/necklace.jpg'><div class=""fixation"">+</div>","null","","","exp","show_product2","10","","","2","","","","","","","","","","",""
"html-keyboard-response","156","603284","0.0-9.0-1.0-6.10","5c519ec789254700019f7934","","","","","","null","<img class=right_person src='images/persons/person3.jpg'><img class=reward src='images/one_coin.png'><img class=product src='images/products/necklace.jpg'>","null","","","exp","show_reward2","10","1","2","2","1","3","1","1","2","0.822389236068851","0.15","0.276185955943674","0.473979742490966","0.674465517173692","0"
"html-keyboard-response","157","604677","0.0-9.0-1.0-0.11","5c519ec789254700019f7934","","","","","","1234","<img class=left_person src='images/persons/person4.jpg'><img class=right_person src='images/persons/person5.jpg'><div class=""fixation"">+</div>","s","","","exp","choice","11","","","","","","","","","","","","","",""
"html-keyboard-response","158","605435","0.0-9.0-1.0-1.11","5c519ec789254700019f7934","","","","","","null","<img class=left_person src='images/persons/person4.jpg'><div class=""fixation"">+</div>","null","","","exp","show_choice","11","0","3","","","","","","","","","","","",""
"html-keyboard-response","159","606197","0.0-9.0-1.0-2.11","5c519ec789254700019f7934","","","","","","null","<img class=left_person src='images/persons/person4.jpg'><img class=product src='images/products/necklace.jpg'><div class=""fixation"">+</div>","null","","","exp","show_product1","11","","","3","","","","","","","","","","",""
"html-keyboard-response","160","607203","0.0-9.0-1.0-3.11","5c519ec789254700019f7934","","","","","","null","<img class=left_person src='images/persons/person4.jpg'><img class=reward src='images/one_coin.png'><img class=product src='images/products/necklace.jpg'>","null","","","exp","show_reward1","11","","","3","1","","","","","","","","","",""
"html-keyboard-response","161","607959","0.0-9.0-1.0-4.11","5c519ec789254700019f7934","","","","","","null","<img class=left_person src='images/persons/person4.jpg'><div class=""fixation"">+</div>","null","","","exp","show_choice","11","0","3","","","","","","","","","","","",""
"html-keyboard-response","162","608718","0.0-9.0-1.0-5.11","5c519ec789254700019f7934","","","","","","null","<img class=left_person src='images/persons/person4.jpg'><img class=product src='images/products/printer.jpg'><div class=""fixation"">+</div>","null","","","exp","show_product2","11","","","3","","","","","","","","","","",""
"html-keyboard-response","163","609735","0.0-9.0-1.0-6.11","5c519ec789254700019f7934","","","","","","null","<img class=left_person src='images/persons/person4.jpg'><img class=reward src='images/one_coin.png'><img class=product src='images/products/printer.jpg'>","null","","","exp","show_reward2","11","0","3","3","1","4","1","3","4","0.828573248346949","0.15","0.301416841668589","0.56077939884274","0.73327356711186","0"
"html-keyboard-response","164","611357","0.0-9.0-1.0-0.12","5c519ec789254700019f7934","","","","","","1466","<img class=left_person src='images/persons/person3.jpg'><img class=right_person src='images/persons/person2.jpg'><div class=""fixation"">+</div>","s","","","exp","choice","12","","","","","","","","","","","","","",""
"html-keyboard-response","165","612116","0.0-9.0-1.0-1.12","5c519ec789254700019f7934","","","","","","null","<img class=left_person src='images/persons/person3.jpg'><div class=""fixation"">+</div>","null","","","exp","show_choice","12","0","2","","","","","","","","","","","",""
"html-keyboard-response","166","612881","0.0-9.0-1.0-2.12","5c519ec789254700019f7934","","","","","","null","<img class=left_person src='images/persons/person3.jpg'><img class=product src='images/products/cake.jpg'><div class=""fixation"">+</div>","null","","","exp","show_product1","12","","","2","","","","","","","","","","",""
"html-keyboard-response","167","613886","0.0-9.0-1.0-3.12","5c519ec789254700019f7934","","","","","","null","<img class=left_person src='images/persons/person3.jpg'><img class=reward src='images/zero_coins.png'><img class=product src='images/products/cake.jpg'>","null","","","exp","show_reward1","12","","","2","0","","","","","","","","","",""
"html-keyboard-response","168","614645","0.0-9.0-1.0-4.12","5c519ec789254700019f7934","","","","","","null","<img class=left_person src='images/persons/person3.jpg'><div class=""fixation"">+</div>","null","","","exp","show_choice","12","0","2","","","","","","","","","","","",""
"html-keyboard-response","169","615413","0.0-9.0-1.0-5.12","5c519ec789254700019f7934","","","","","","null","<img class=left_person src='images/persons/person3.jpg'><img class=product src='images/products/necklace.jpg'><div class=""fixation"">+</div>","null","","","exp","show_product2","12","","","2","","","","","","","","","","",""
"html-keyboard-response","170","616432","0.0-9.0-1.0-6.12","5c519ec789254700019f7934","","","","","","null","<img class=left_person src='images/persons/person3.jpg'><img class=reward src='images/one_coin.png'><img class=product src='images/products/necklace.jpg'>","null","","","exp","show_reward2","12","0","2","2","0","3","1","2","1","0.82235841988738","0.174511106464412","0.319376885854591","0.557563654434813","0.715348073066321","0"
"html-keyboard-response","171","617355","0.0-9.0-1.0-0.13","5c519ec789254700019f7934","","","","","","763","<img class=left_person src='images/persons/person2.jpg'><img class=right_person src='images/persons/person1.jpg'><div class=""fixation"">+</div>","k","","","exp","choice","13","","","","","","","","","","","","","",""
"html-keyboard-response","172","618110","0.0-9.0-1.0-1.13","5c519ec789254700019f7934","","","","","","null","<img class=right_person src='images/persons/person1.jpg'><div class=""fixation"">+</div>","null","","","exp","show_choice","13","1","0","","","","","","","","","","","",""
"html-keyboard-response","173","618875","0.0-9.0-1.0-2.13","5c519ec789254700019f7934","","","","","","null","<img class=right_person src='images/persons/person1.jpg'><img class=product src='images/products/bicycle.jpg'><div class=""fixation"">+</div>","null","","","exp","show_product1","13","","","0","","","","","","","","","","",""
"html-keyboard-response","174","619889","0.0-9.0-1.0-3.13","5c519ec789254700019f7934","","","","","","null","<img class=right_person src='images/persons/person1.jpg'><img class=reward src='images/one_coin.png'><img class=product src='images/products/bicycle.jpg'>","null","","","exp","show_reward1","13","","","0","1","","","","","","","","","",""
"html-keyboard-response","175","620645","0.0-9.0-1.0-4.13","5c519ec789254700019f7934","","","","","","null","<img class=right_person src='images/persons/person1.jpg'><div class=""fixation"">+</div>","null","","","exp","show_choice","13","1","0","","","","","","","","","","","",""
"html-keyboard-response","176","621413","0.0-9.0-1.0-5.13","5c519ec789254700019f7934","","","","","","null","<img class=right_person src='images/persons/person1.jpg'><img class=product src='images/products/book.jpg'><div class=""fixation"">+</div>","null","","","exp","show_product2","13","","","0","","","","","","","","","","",""
"html-keyboard-response","177","622421","0.0-9.0-1.0-6.13","5c519ec789254700019f7934","","","","","","null","<img class=right_person src='images/persons/person1.jpg'><img class=reward src='images/zero_coins.png'><img class=product src='images/products/book.jpg'>","null","","","exp","show_reward2","13","1","0","0","1","1","0","1","0","0.818936173108669","0.169541839167227","0.277157927311357","0.555217513237541","0.750211476604643","0"
"html-keyboard-response","178","624065","0.0-9.0-1.0-0.14","5c519ec789254700019f7934","","","","","","1487","<img class=left_person src='images/persons/person4.jpg'><img class=right_person src='images/persons/person3.jpg'><div class=""fixation"">+</div>","k","","","exp","choice","14","","","","","","","","","","","","","",""
"html-keyboard-response","179","624830","0.0-9.0-1.0-1.14","5c519ec789254700019f7934","","","","","","null","<img class=right_person src='images/persons/person3.jpg'><div class=""fixation"">+</div>","null","","","exp","show_choice","14","1","2","","","","","","","","","","","",""
"html-keyboard-response","180","625599","0.0-9.0-1.0-2.14","5c519ec789254700019f7934","","","","","","null","<img class=right_person src='images/persons/person3.jpg'><img class=product src='images/products/necklace.jpg'><div class=""fixation"">+</div>","null","","","exp","show_product1","14","","","3","","","","","","","","","","",""
"html-keyboard-response","181","626603","0.0-9.0-1.0-3.14","5c519ec789254700019f7934","","","","","","null","<img class=right_person src='images/persons/person3.jpg'><img class=reward src='images/zero_coins.png'><img class=product src='images/products/necklace.jpg'>","null","","","exp","show_reward1","14","","","3","0","","","","","","","","","",""
"html-keyboard-response","182","627361","0.0-9.0-1.0-4.14","5c519ec789254700019f7934","","","","","","null","<img class=right_person src='images/persons/person3.jpg'><div class=""fixation"">+</div>","null","","","exp","show_choice","14","1","2","","","","","","","","","","","",""
"html-keyboard-response","183","628119","0.0-9.0-1.0-5.14","5c519ec789254700019f7934","","","","","","null","<img class=right_person src='images/persons/person3.jpg'><img class=product src='images/products/cake.jpg'><div class=""fixation"">+</div>","null","","","exp","show_product2","14","","","3","","","","","","","","","","",""
"html-keyboard-response","184","629137","0.0-9.0-1.0-6.14","5c519ec789254700019f7934","","","","","","null","<img class=right_person src='images/persons/person3.jpg'><img class=reward src='images/zero_coins.png'><img class=product src='images/products/cake.jpg'>","null","","","exp","show_reward2","14","1","2","3","0","2","0","3","2","0.821042218242468","0.190247309103374","0.25644272974515","0.52539124024098","0.764149002617676","0"
"html-keyboard-response","185","630536","0.0-9.0-1.0-0.15","5c519ec789254700019f7934","","","","","","1242","<img class=left_person src='images/persons/person5.jpg'><img class=right_person src='images/persons/person1.jpg'><div class=""fixation"">+</div>","s","","","exp","choice","15","","","","","","","","","","","","","",""
"html-keyboard-response","186","631301","0.0-9.0-1.0-1.15","5c519ec789254700019f7934","","","","","","null","<img class=left_person src='images/persons/person5.jpg'><div class=""fixation"">+</div>","null","","","exp","show_choice","15","0","4","","","","","","","","","","","",""
"html-keyboard-response","187","632053","0.0-9.0-1.0-2.15","5c519ec789254700019f7934","","","","","","null","<img class=left_person src='images/persons/person5.jpg'><img class=product src='images/products/bicycle.jpg'><div class=""fixation"">+</div>","null","","","exp","show_product1","15","","","0","","","","","","","","","","",""
"html-keyboard-response","188","633070","0.0-9.0-1.0-3.15","5c519ec789254700019f7934","","","","","","null","<img class=left_person src='images/persons/person5.jpg'><img class=reward src='images/one_coin.png'><img class=product src='images/products/bicycle.jpg'>","null","","","exp","show_reward1","15","","","0","1","","","","","","","","","",""
"html-keyboard-response","189","633832","0.0-9.0-1.0-4.15","5c519ec789254700019f7934","","","","","","null","<img class=left_person src='images/persons/person5.jpg'><div class=""fixation"">+</div>","null","","","exp","show_choice","15","0","4","","","","","","","","","","","",""
"html-keyboard-response","190","634584","0.0-9.0-1.0-5.15","5c519ec789254700019f7934","","","","","","null","<img class=left_person src='images/persons/person5.jpg'><img class=product src='images/products/printer.jpg'><div class=""fixation"">+</div>","null","","","exp","show_product2","15","","","0","","","","","","","","","","",""
"html-keyboard-response","191","635587","0.0-9.0-1.0-6.15","5c519ec789254700019f7934","","","","","","null","<img class=left_person src='images/persons/person5.jpg'><img class=reward src='images/one_coin.png'><img class=product src='images/products/printer.jpg'>","null","","","exp","show_reward2","15","0","4","0","1","4","1","4","0","0.8000877519523","0.199722031981632","0.273497021897991","0.511643976206076","0.770832229129188","0"
"html-keyboard-response","192","636966","0.0-9.0-1.0-0.16","5c519ec789254700019f7934","","","","","","1224","<img class=left_person src='images/persons/person3.jpg'><img class=right_person src='images/persons/person2.jpg'><div class=""fixation"">+</div>","s","","","exp","choice","16","","","","","","","","","","","","","",""
"html-keyboard-response","193","637728","0.0-9.0-1.0-1.16","5c519ec789254700019f7934","","","","","","null","<img class=left_person src='images/persons/person3.jpg'><div class=""fixation"">+</div>","null","","","exp","show_choice","16","0","2","","","","","","","","","","","",""
"html-keyboard-response","194","638482","0.0-9.0-1.0-2.16","5c519ec789254700019f7934","","","","","","null","<img class=left_person src='images/persons/person3.jpg'><img class=product src='images/products/cake.jpg'><div class=""fixation"">+</div>","null","","","exp","show_product1","16","","","2","","","","","","","","","","",""
"html-keyboard-response","195","639485","0.0-9.0-1.0-3.16","5c519ec789254700019f7934","","","","","","null","<img class=left_person src='images/persons/person3.jpg'><img class=reward src='images/zero_coins.png'><img class=product src='images/products/cake.jpg'>","null","","","exp","show_reward1","16","","","2","0","","","","","","","","","",""
"html-keyboard-response","196","640248","0.0-9.0-1.0-4.16","5c519ec789254700019f7934","","","","","","null","<img class=left_person src='images/persons/person3.jpg'><div class=""fixation"">+</div>","null","","","exp","show_choice","16","0","2","","","","","","","","","","","",""
"html-keyboard-response","197","641014","0.0-9.0-1.0-5.16","5c519ec789254700019f7934","","","","","","null","<img class=left_person src='images/persons/person3.jpg'><img class=product src='images/products/necklace.jpg'><div class=""fixation"">+</div>","null","","","exp","show_product2","16","","","2","","","","","","","","","","",""
"html-keyboard-response","198","642019","0.0-9.0-1.0-6.16","5c519ec789254700019f7934","","","","","","null","<img class=left_person src='images/persons/person3.jpg'><img class=reward src='images/zero_coins.png'><img class=product src='images/products/necklace.jpg'>","null","","","exp","show_reward2","16","0","2","2","0","3","0","2","1","0.766630815438285","0.200486182150105","0.273891417377866","0.515519884262608","0.740813845637912","0"
"html-keyboard-response","199","643045","0.0-9.0-1.0-0.17","5c519ec789254700019f7934","","","","","","866","<img class=left_person src='images/persons/person3.jpg'><img class=right_person src='images/persons/person4.jpg'><div class=""fixation"">+</div>","k","","","exp","choice","17","","","","","","","","","","","","","",""
"html-keyboard-response","200","643814","0.0-9.0-1.0-1.17","5c519ec789254700019f7934","","","","","","null","<img class=right_person src='images/persons/person4.jpg'><div class=""fixation"">+</div>","null","","","exp","show_choice","17","1","3","","","","","","","","","","","",""
"html-keyboard-response","201","644580","0.0-9.0-1.0-2.17","5c519ec789254700019f7934","","","","","","null","<img class=right_person src='images/persons/person4.jpg'><img class=product src='images/products/necklace.jpg'><div class=""fixation"">+</div>","null","","","exp","show_product1","17","","","3","","","","","","","","","","",""
"html-keyboard-response","202","645584","0.0-9.0-1.0-3.17","5c519ec789254700019f7934","","","","","","null","<img class=right_person src='images/persons/person4.jpg'><img class=reward src='images/one_coin.png'><img class=product src='images/products/necklace.jpg'>","null","","","exp","show_reward1","17","","","3","1","","","","","","","","","",""
"html-keyboard-response","203","646351","0.0-9.0-1.0-4.17","5c519ec789254700019f7934","","","","","","null","<img class=right_person src='images/persons/person4.jpg'><div class=""fixation"">+</div>","null","","","exp","show_choice","17","1","3","","","","","","","","","","","",""
"html-keyboard-response","204","647113","0.0-9.0-1.0-5.17","5c519ec789254700019f7934","","","","","","null","<img class=right_person src='images/persons/person4.jpg'><img class=product src='images/products/printer.jpg'><div class=""fixation"">+</div>","null","","","exp","show_product2","17","","","3","","","","","","","","","","",""
"html-keyboard-response","205","648119","0.0-9.0-1.0-6.17","5c519ec789254700019f7934","","","","","","null","<img class=right_person src='images/persons/person4.jpg'><img class=reward src='images/one_coin.png'><img class=product src='images/products/printer.jpg'>","null","","","exp","show_reward2","17","1","3","3","1","4","1","2","3","0.7303930496961","0.203320206746581","0.254951419024212","0.522103080213616","0.791809911738386","0"
"html-keyboard-response","206","650062","0.0-9.0-1.0-0.18","5c519ec789254700019f7934","","","","","","1785","<img class=left_person src='images/persons/person1.jpg'><img class=right_person src='images/persons/person2.jpg'><div class=""fixation"">+</div>","s","","","exp","choice","18","","","","","","","","","","","","","",""
"html-keyboard-response","207","650831","0.0-9.0-1.0-1.18","5c519ec789254700019f7934","","","","","","null","<img class=left_person src='images/persons/person1.jpg'><div class=""fixation"">+</div>","null","","","exp","show_choice","18","0","0","","","","","","","","","","","",""
"html-keyboard-response","208","651586","0.0-9.0-1.0-2.18","5c519ec789254700019f7934","","","","","","null","<img class=left_person src='images/persons/person1.jpg'><img class=product src='images/products/book.jpg'><div class=""fixation"">+</div>","null","","","exp","show_product1","18","","","1","","","","","","","","","","",""
"html-keyboard-response","209","652594","0.0-9.0-1.0-3.18","5c519ec789254700019f7934","","","","","","null","<img class=left_person src='images/persons/person1.jpg'><img class=reward src='images/zero_coins.png'><img class=product src='images/products/book.jpg'>","null","","","exp","show_reward1","18","","","1","0","","","","","","","","","",""
"html-keyboard-response","210","653347","0.0-9.0-1.0-4.18","5c519ec789254700019f7934","","","","","","null","<img class=left_person src='images/persons/person1.jpg'><div class=""fixation"">+</div>","null","","","exp","show_choice","18","0","0","","","","","","","","","","","",""
"html-keyboard-response","211","654105","0.0-9.0-1.0-5.18","5c519ec789254700019f7934","","","","","","null","<img class=left_person src='images/persons/person1.jpg'><img class=product src='images/products/bicycle.jpg'><div class=""fixation"">+</div>","null","","","exp","show_product2","18","","","1","","","","","","","","","","",""
"html-keyboard-response","212","655106","0.0-9.0-1.0-6.18","5c519ec789254700019f7934","","","","","","null","<img class=left_person src='images/persons/person1.jpg'><img class=reward src='images/one_coin.png'><img class=product src='images/products/bicycle.jpg'>","null","","","exp","show_reward2","18","0","0","1","0","0","1","0","1","0.763782389135076","0.19102162142707","0.312032243449137","0.481017053760479","0.825543461167899","0"
"html-keyboard-response","213","656460","0.0-9.0-1.0-0.19","5c519ec789254700019f7934","","","","","","1200","<img class=left_person src='images/persons/person2.jpg'><img class=right_person src='images/persons/person1.jpg'><div class=""fixation"">+</div>","s","","","exp","choice","19","","","","","","","","","","","","","",""
"html-keyboard-response","214","657217","0.0-9.0-1.0-1.19","5c519ec789254700019f7934","","","","","","null","<img class=left_person src='images/persons/person2.jpg'><div class=""fixation"">+</div>","null","","","exp","show_choice","19","0","1","","","","","","","","","","","",""
"html-keyboard-response","215","657983","0.0-9.0-1.0-2.19","5c519ec789254700019f7934","","","","","","null","<img class=left_person src='images/persons/person2.jpg'><img class=product src='images/products/book.jpg'><div class=""fixation"">+</div>","null","","","exp","show_product1","19","","","1","","","","","","","","","","",""
"html-keyboard-response","216","658986","0.0-9.0-1.0-3.19","5c519ec789254700019f7934","","","","","","null","<img class=left_person src='images/persons/person2.jpg'><img class=reward src='images/one_coin.png'><img class=product src='images/products/book.jpg'>","null","","","exp","show_reward1","19","","","1","1","","","","","","","","","",""
"html-keyboard-response","217","659751","0.0-9.0-1.0-4.19","5c519ec789254700019f7934","","","","","","null","<img class=left_person src='images/persons/person2.jpg'><div class=""fixation"">+</div>","null","","","exp","show_choice","19","0","1","","","","","","","","","","","",""
"html-keyboard-response","218","660512","0.0-9.0-1.0-5.19","5c519ec789254700019f7934","","","","","","null","<img class=left_person src='images/persons/person2.jpg'><img class=product src='images/products/cake.jpg'><div class=""fixation"">+</div>","null","","","exp","show_product2","19","","","1","","","","","","","","","","",""
"html-keyboard-response","219","661527","0.0-9.0-1.0-6.19","5c519ec789254700019f7934","","","","","","null","<img class=left_person src='images/persons/person2.jpg'><img class=reward src='images/zero_coins.png'><img class=product src='images/products/cake.jpg'>","null","","","exp","show_reward2","19","0","1","1","1","2","0","1","0","0.789790079665366","0.174042861511249","0.341374423977365","0.463532941049501","0.795124154334121","0"
"html-keyboard-response","220","662577","0.0-9.0-1.0-0.20","5c519ec789254700019f7934","","","","","","883","<img class=left_person src='images/persons/person4.jpg'><img class=right_person src='images/persons/person5.jpg'><div class=""fixation"">+</div>","k","","","exp","choice","20","","","","","","","","","","","","","",""
"html-keyboard-response","221","663334","0.0-9.0-1.0-1.20","5c519ec789254700019f7934","","","","","","null","<img class=right_person src='images/persons/person5.jpg'><div class=""fixation"">+</div>","null","","","exp","show_choice","20","1","4","","","","","","","","","","","",""
"html-keyboard-response","222","664103","0.0-9.0-1.0-2.20","5c519ec789254700019f7934","","","","","","null","<img class=right_person src='images/persons/person5.jpg'><img class=product src='images/products/bicycle.jpg'><div class=""fixation"">+</div>","null","","","exp","show_product1","20","","","0","","","","","","","","","","",""
"html-keyboard-response","223","665106","0.0-9.0-1.0-3.20","5c519ec789254700019f7934","","","","","","null","<img class=right_person src='images/persons/person5.jpg'><img class=reward src='images/zero_coins.png'><img class=product src='images/products/bicycle.jpg'>","null","","","exp","show_reward1","20","","","0","0","","","","","","","","","",""
"html-keyboard-response","224","665863","0.0-9.0-1.0-4.20","5c519ec789254700019f7934","","","","","","null","<img class=right_person src='images/persons/person5.jpg'><div class=""fixation"">+</div>","null","","","exp","show_choice","20","1","4","","","","","","","","","","","",""
"html-keyboard-response","225","666617","0.0-9.0-1.0-5.20","5c519ec789254700019f7934","","","","","","null","<img class=right_person src='images/persons/person5.jpg'><img class=product src='images/products/printer.jpg'><div class=""fixation"">+</div>","null","","","exp","show_product2","20","","","0","","","","","","","","","","",""
"html-keyboard-response","226","667621","0.0-9.0-1.0-6.20","5c519ec789254700019f7934","","","","","","null","<img class=right_person src='images/persons/person5.jpg'><img class=reward src='images/zero_coins.png'><img class=product src='images/products/printer.jpg'>","null","","","exp","show_reward2","20","1","4","0","0","4","0","3","4","0.813054939404157","0.177309419861098","0.36588038524639","0.474368023260813","0.780813025915748","0"
"html-keyboard-response","227","668299","0.0-9.0-1.0-0.21","5c519ec789254700019f7934","","","","","","519","<img class=left_person src='images/persons/person4.jpg'><img class=right_person src='images/persons/person5.jpg'><div class=""fixation"">+</div>","s","","","exp","choice","21","","","","","","","","","","","","","",""
"html-keyboard-response","228","669064","0.0-9.0-1.0-1.21","5c519ec789254700019f7934","","","","","","null","<img class=left_person src='images/persons/person4.jpg'><div class=""fixation"">+</div>","null","","","exp","show_choice","21","0","3","","","","","","","","","","","",""
"html-keyboard-response","229","669830","0.0-9.0-1.0-2.21","5c519ec789254700019f7934","","","","","","null","<img class=left_person src='images/persons/person4.jpg'><img class=product src='images/products/printer.jpg'><div class=""fixation"">+</div>","null","","","exp","show_product1","21","","","4","","","","","","","","","","",""
"html-keyboard-response","230","670841","0.0-9.0-1.0-3.21","5c519ec789254700019f7934","","","","","","null","<img class=left_person src='images/persons/person4.jpg'><img class=reward src='images/one_coin.png'><img class=product src='images/products/printer.jpg'>","null","","","exp","show_reward1","21","","","4","1","","","","","","","","","",""
"html-keyboard-response","231","671601","0.0-9.0-1.0-4.21","5c519ec789254700019f7934","","","","","","null","<img class=left_person src='images/persons/person4.jpg'><div class=""fixation"">+</div>","null","","","exp","show_choice","21","0","3","","","","","","","","","","","",""
"html-keyboard-response","232","672365","0.0-9.0-1.0-5.21","5c519ec789254700019f7934","","","","","","null","<img class=left_person src='images/persons/person4.jpg'><img class=product src='images/products/necklace.jpg'><div class=""fixation"">+</div>","null","","","exp","show_product2","21","","","4","","","","","","","","","","",""
"html-keyboard-response","233","673376","0.0-9.0-1.0-6.21","5c519ec789254700019f7934","","","","","","null","<img class=left_person src='images/persons/person4.jpg'><img class=reward src='images/zero_coins.png'><img class=product src='images/products/necklace.jpg'>","null","","","exp","show_reward2","21","0","3","4","1","3","0","3","4","0.84393101386153","0.175104675802206","0.320982460294762","0.464500411096143","0.796615809560114","0"
"html-keyboard-response","234","674598","0.0-9.0-1.0-0.22","5c519ec789254700019f7934","","","","","","1054","<img class=left_person src='images/persons/person5.jpg'><img class=right_person src='images/persons/person1.jpg'><div class=""fixation"">+</div>","k","","","exp","choice","22","","","","","","","","","","","","","",""
"html-keyboard-response","235","675364","0.0-9.0-1.0-1.22","5c519ec789254700019f7934","","","","","","null","<img class=right_person src='images/persons/person1.jpg'><div class=""fixation"">+</div>","null","","","exp","show_choice","22","1","0","","","","","","","","","","","",""
"html-keyboard-response","236","676117","0.0-9.0-1.0-2.22","5c519ec789254700019f7934","","","","","","null","<img class=right_person src='images/persons/person1.jpg'><img class=product src='images/products/bicycle.jpg'><div class=""fixation"">+</div>","null","","","exp","show_product1","22","","","0","","","","","","","","","","",""
"html-keyboard-response","237","677122","0.0-9.0-1.0-3.22","5c519ec789254700019f7934","","","","","","null","<img class=right_person src='images/persons/person1.jpg'><img class=reward src='images/one_coin.png'><img class=product src='images/products/bicycle.jpg'>","null","","","exp","show_reward1","22","","","0","1","","","","","","","","","",""
"html-keyboard-response","238","677882","0.0-9.0-1.0-4.22","5c519ec789254700019f7934","","","","","","null","<img class=right_person src='images/persons/person1.jpg'><div class=""fixation"">+</div>","null","","","exp","show_choice","22","1","0","","","","","","","","","","","",""
"html-keyboard-response","239","678635","0.0-9.0-1.0-5.22","5c519ec789254700019f7934","","","","","","null","<img class=right_person src='images/persons/person1.jpg'><img class=product src='images/products/book.jpg'><div class=""fixation"">+</div>","null","","","exp","show_product2","22","","","0","","","","","","","","","","",""
"html-keyboard-response","240","679653","0.0-9.0-1.0-6.22","5c519ec789254700019f7934","","","","","","null","<img class=right_person src='images/persons/person1.jpg'><img class=reward src='images/zero_coins.png'><img class=product src='images/products/book.jpg'>","null","","","exp","show_reward2","22","1","0","0","1","1","0","4","0","0.790738341178822","0.15","0.3244012086387","0.48776031756087","0.752435068180344","0"
"html-keyboard-response","241","680854","0.0-9.0-1.0-0.23","5c519ec789254700019f7934","","","","","","1045","<img class=left_person src='images/persons/person2.jpg'><img class=right_person src='images/persons/person1.jpg'><div class=""fixation"">+</div>","k","","","exp","choice","23","","","","","","","","","","","","","",""
"html-keyboard-response","242","681616","0.0-9.0-1.0-1.23","5c519ec789254700019f7934","","","","","","null","<img class=right_person src='images/persons/person1.jpg'><div class=""fixation"">+</div>","null","","","exp","show_choice","23","1","0","","","","","","","","","","","",""
"html-keyboard-response","243","682378","0.0-9.0-1.0-2.23","5c519ec789254700019f7934","","","","","","null","<img class=right_person src='images/persons/person1.jpg'><img class=product src='images/products/bicycle.jpg'><div class=""fixation"">+</div>","null","","","exp","show_product1","23","","","0","","","","","","","","","","",""
"html-keyboard-response","244","683385","0.0-9.0-1.0-3.23","5c519ec789254700019f7934","","","","","","null","<img class=right_person src='images/persons/person1.jpg'><img class=reward src='images/one_coin.png'><img class=product src='images/products/bicycle.jpg'>","null","","","exp","show_reward1","23","","","0","1","","","","","","","","","",""
"html-keyboard-response","245","684142","0.0-9.0-1.0-4.23","5c519ec789254700019f7934","","","","","","null","<img class=right_person src='images/persons/person1.jpg'><div class=""fixation"">+</div>","null","","","exp","show_choice","23","1","0","","","","","","","","","","","",""
"html-keyboard-response","246","684909","0.0-9.0-1.0-5.23","5c519ec789254700019f7934","","","","","","null","<img class=right_person src='images/persons/person1.jpg'><img class=product src='images/products/book.jpg'><div class=""fixation"">+</div>","null","","","exp","show_product2","23","","","0","","","","","","","","","","",""
"html-keyboard-response","247","685913","0.0-9.0-1.0-6.23","5c519ec789254700019f7934","","","","","","null","<img class=right_person src='images/persons/person1.jpg'><img class=reward src='images/one_coin.png'><img class=product src='images/products/book.jpg'>","null","","","exp","show_reward2","23","1","0","0","1","1","1","1","0","0.810835526904358","0.20909017634049","0.330027330974978","0.479917549297136","0.753862423574943","0"
"html-keyboard-response","248","687671","0.0-9.0-1.0-0.24","5c519ec789254700019f7934","","","","","","1597","<img class=left_person src='images/persons/person4.jpg'><img class=right_person src='images/persons/person5.jpg'><div class=""fixation"">+</div>","s","","","exp","choice","24","","","","","","","","","","","","","",""
"html-keyboard-response","249","688429","0.0-9.0-1.0-1.24","5c519ec789254700019f7934","","","","","","null","<img class=left_person src='images/persons/person4.jpg'><div class=""fixation"">+</div>","null","","","exp","show_choice","24","0","3","","","","","","","","","","","",""
"html-keyboard-response","250","689192","0.0-9.0-1.0-2.24","5c519ec789254700019f7934","","","","","","null","<img class=left_person src='images/persons/person4.jpg'><img class=product src='images/products/printer.jpg'><div class=""fixation"">+</div>","null","","","exp","show_product1","24","","","4","","","","","","","","","","",""
"html-keyboard-response","251","690201","0.0-9.0-1.0-3.24","5c519ec789254700019f7934","","","","","","null","<img class=left_person src='images/persons/person4.jpg'><img class=reward src='images/one_coin.png'><img class=product src='images/products/printer.jpg'>","null","","","exp","show_reward1","24","","","4","1","","","","","","","","","",""
"html-keyboard-response","252","690961","0.0-9.0-1.0-4.24","5c519ec789254700019f7934","","","","","","null","<img class=left_person src='images/persons/person4.jpg'><div class=""fixation"">+</div>","null","","","exp","show_choice","24","0","3","","","","","","","","","","","",""
"html-keyboard-response","253","691717","0.0-9.0-1.0-5.24","5c519ec789254700019f7934","","","","","","null","<img class=left_person src='images/persons/person4.jpg'><img class=product src='images/products/necklace.jpg'><div class=""fixation"">+</div>","null","","","exp","show_product2","24","","","4","","","","","","","","","","",""
"html-keyboard-response","254","692725","0.0-9.0-1.0-6.24","5c519ec789254700019f7934","","","","","","null","<img class=left_person src='images/persons/person4.jpg'><img class=reward src='images/zero_coins.png'><img class=product src='images/products/necklace.jpg'>","null","","","exp","show_reward2","24","0","3","4","1","3","0","3","4","0.808669506514659","0.227281798478941","0.363102116230606","0.510391928735227","0.75250724416214","0"
"html-keyboard-response","255","693720","0.0-9.0-1.0-0.25","5c519ec789254700019f7934","","","","","","828","<img class=left_person src='images/persons/person1.jpg'><img class=right_person src='images/persons/person2.jpg'><div class=""fixation"">+</div>","s","","","exp","choice","25","","","","","","","","","","","","","",""
"html-keyboard-response","256","694484","0.0-9.0-1.0-1.25","5c519ec789254700019f7934","","","","","","null","<img class=left_person src='images/persons/person1.jpg'><div class=""fixation"">+</div>","null","","","exp","show_choice","25","0","0","","","","","","","","","","","",""
"html-keyboard-response","257","695252","0.0-9.0-1.0-2.25","5c519ec789254700019f7934","","","","","","null","<img class=left_person src='images/persons/person1.jpg'><img class=product src='images/products/book.jpg'><div class=""fixation"">+</div>","null","","","exp","show_product1","25","","","1","","","","","","","","","","",""
"html-keyboard-response","258","696260","0.0-9.0-1.0-3.25","5c519ec789254700019f7934","","","","","","null","<img class=left_person src='images/persons/person1.jpg'><img class=reward src='images/zero_coins.png'><img class=product src='images/products/book.jpg'>","null","","","exp","show_reward1","25","","","1","0","","","","","","","","","",""
"html-keyboard-response","259","697012","0.0-9.0-1.0-4.25","5c519ec789254700019f7934","","","","","","null","<img class=left_person src='images/persons/person1.jpg'><div class=""fixation"">+</div>","null","","","exp","show_choice","25","0","0","","","","","","","","","","","",""
"html-keyboard-response","260","697766","0.0-9.0-1.0-5.25","5c519ec789254700019f7934","","","","","","null","<img class=left_person src='images/persons/person1.jpg'><img class=product src='images/products/bicycle.jpg'><div class=""fixation"">+</div>","null","","","exp","show_product2","25","","","1","","","","","","","","","","",""
"html-keyboard-response","261","698775","0.0-9.0-1.0-6.25","5c519ec789254700019f7934","","","","","","null","<img class=left_person src='images/persons/person1.jpg'><img class=reward src='images/one_coin.png'><img class=product src='images/products/bicycle.jpg'>","null","","","exp","show_reward2","25","0","0","1","0","0","1","0","1","0.830427921003512","0.199608333271639","0.365062428421459","0.557318404500998","0.741156088497305","0"
"html-keyboard-response","262","700375","0.0-9.0-1.0-0.26","5c519ec789254700019f7934","","","","","","1435","<img class=left_person src='images/persons/person2.jpg'><img class=right_person src='images/persons/person1.jpg'><div class=""fixation"">+</div>","k","","","exp","choice","26","","","","","","","","","","","","","",""
"html-keyboard-response","263","701132","0.0-9.0-1.0-1.26","5c519ec789254700019f7934","","","","","","null","<img class=right_person src='images/persons/person1.jpg'><div class=""fixation"">+</div>","null","","","exp","show_choice","26","1","0","","","","","","","","","","","",""
"html-keyboard-response","264","701895","0.0-9.0-1.0-2.26","5c519ec789254700019f7934","","","","","","null","<img class=right_person src='images/persons/person1.jpg'><img class=product src='images/products/bicycle.jpg'><div class=""fixation"">+</div>","null","","","exp","show_product1","26","","","0","","","","","","","","","","",""
"html-keyboard-response","265","702904","0.0-9.0-1.0-3.26","5c519ec789254700019f7934","","","","","","null","<img class=right_person src='images/persons/person1.jpg'><img class=reward src='images/one_coin.png'><img class=product src='images/products/bicycle.jpg'>","null","","","exp","show_reward1","26","","","0","1","","","","","","","","","",""
"html-keyboard-response","266","703663","0.0-9.0-1.0-4.26","5c519ec789254700019f7934","","","","","","null","<img class=right_person src='images/persons/person1.jpg'><div class=""fixation"">+</div>","null","","","exp","show_choice","26","1","0","","","","","","","","","","","",""
"html-keyboard-response","267","704433","0.0-9.0-1.0-5.26","5c519ec789254700019f7934","","","","","","null","<img class=right_person src='images/persons/person1.jpg'><img class=product src='images/products/book.jpg'><div class=""fixation"">+</div>","null","","","exp","show_product2","26","","","0","","","","","","","","","","",""
"html-keyboard-response","268","705438","0.0-9.0-1.0-6.26","5c519ec789254700019f7934","","","","","","null","<img class=right_person src='images/persons/person1.jpg'><img class=reward src='images/zero_coins.png'><img class=product src='images/products/book.jpg'>","null","","","exp","show_reward2","26","1","0","0","1","1","0","1","0","0.787328188877734","0.191349092972107","0.403647291511982","0.540335162156038","0.73191286170991","0"
"html-keyboard-response","269","706254","0.0-9.0-1.0-0.27","5c519ec789254700019f7934","","","","","","662","<img class=left_person src='images/persons/person1.jpg'><img class=right_person src='images/persons/person2.jpg'><div class=""fixation"">+</div>","k","","","exp","choice","27","","","","","","","","","","","","","",""
"html-keyboard-response","270","707016","0.0-9.0-1.0-1.27","5c519ec789254700019f7934","","","","","","null","<img class=right_person src='images/persons/person2.jpg'><div class=""fixation"">+</div>","null","","","exp","show_choice","27","1","1","","","","","","","","","","","",""
"html-keyboard-response","271","707768","0.0-9.0-1.0-2.27","5c519ec789254700019f7934","","","","","","null","<img class=right_person src='images/persons/person2.jpg'><img class=product src='images/products/cake.jpg'><div class=""fixation"">+</div>","null","","","exp","show_product1","27","","","2","","","","","","","","","","",""
"html-keyboard-response","272","708778","0.0-9.0-1.0-3.27","5c519ec789254700019f7934","","","","","","null","<img class=right_person src='images/persons/person2.jpg'><img class=reward src='images/one_coin.png'><img class=product src='images/products/cake.jpg'>","null","","","exp","show_reward1","27","","","2","1","","","","","","","","","",""
"html-keyboard-response","273","709531","0.0-9.0-1.0-4.27","5c519ec789254700019f7934","","","","","","null","<img class=right_person src='images/persons/person2.jpg'><div class=""fixation"">+</div>","null","","","exp","show_choice","27","1","1","","","","","","","","","","","",""
"html-keyboard-response","274","710297","0.0-9.0-1.0-5.27","5c519ec789254700019f7934","","","","","","null","<img class=right_person src='images/persons/person2.jpg'><img class=product src='images/products/book.jpg'><div class=""fixation"">+</div>","null","","","exp","show_product2","27","","","2","","","","","","","","","","",""
"html-keyboard-response","275","711304","0.0-9.0-1.0-6.27","5c519ec789254700019f7934","","","","","","null","<img class=right_person src='images/persons/person2.jpg'><img class=reward src='images/zero_coins.png'><img class=product src='images/products/book.jpg'>","null","","","exp","show_reward2","27","1","1","2","1","1","0","0","1","0.770453322443948","0.199338636804652","0.422348264546678","0.53637200027794","0.731308089758876","0"
"html-keyboard-response","276","713619","0.0-9.0-1.0-0.28","5c519ec789254700019f7934","","","","","","2160","<img class=left_person src='images/persons/person5.jpg'><img class=right_person src='images/persons/person4.jpg'><div class=""fixation"">+</div>","s","","","exp","choice","28","","","","","","","","","","","","","",""
"html-keyboard-response","277","714380","0.0-9.0-1.0-1.28","5c519ec789254700019f7934","","","","","","null","<img class=left_person src='images/persons/person5.jpg'><div class=""fixation"">+</div>","null","","","exp","show_choice","28","0","4","","","","","","","","","","","",""
"html-keyboard-response","278","715146","0.0-9.0-1.0-2.28","5c519ec789254700019f7934","","","","","","null","<img class=left_person src='images/persons/person5.jpg'><img class=product src='images/products/bicycle.jpg'><div class=""fixation"">+</div>","null","","","exp","show_product1","28","","","0","","","","","","","","","","",""
"html-keyboard-response","279","716165","0.0-9.0-1.0-3.28","5c519ec789254700019f7934","","","","","","null","<img class=left_person src='images/persons/person5.jpg'><img class=reward src='images/zero_coins.png'><img class=product src='images/products/bicycle.jpg'>","null","","","exp","show_reward1","28","","","0","0","","","","","","","","","",""
"html-keyboard-response","280","716928","0.0-9.0-1.0-4.28","5c519ec789254700019f7934","","","","","","null","<img class=left_person src='images/persons/person5.jpg'><div class=""fixation"">+</div>","null","","","exp","show_choice","28","0","4","","","","","","","","","","","",""
"html-keyboard-response","281","717685","0.0-9.0-1.0-5.28","5c519ec789254700019f7934","","","","","","null","<img class=left_person src='images/persons/person5.jpg'><img class=product src='images/products/printer.jpg'><div class=""fixation"">+</div>","null","","","exp","show_product2","28","","","0","","","","","","","","","","",""
"html-keyboard-response","282","718687","0.0-9.0-1.0-6.28","5c519ec789254700019f7934","","","","","","null","<img class=left_person src='images/persons/person5.jpg'><img class=reward src='images/one_coin.png'><img class=product src='images/products/printer.jpg'>","null","","","exp","show_reward2","28","0","4","0","0","4","1","4","3","0.773021626927195","0.15","0.407037151417796","0.490248791414457","0.773177775121586","0"
"html-keyboard-response","283","719921","0.0-9.0-1.0-0.29","5c519ec789254700019f7934","","","","","","1077","<img class=left_person src='images/persons/person3.jpg'><img class=right_person src='images/persons/person2.jpg'><div class=""fixation"">+</div>","s","","","exp","choice","29","","","","","","","","","","","","","",""
"html-keyboard-response","284","720678","0.0-9.0-1.0-1.29","5c519ec789254700019f7934","","","","","","null","<img class=left_person src='images/persons/person3.jpg'><div class=""fixation"">+</div>","null","","","exp","show_choice","29","0","2","","","","","","","","","","","",""
"html-keyboard-response","285","721430","0.0-9.0-1.0-2.29","5c519ec789254700019f7934","","","","","","null","<img class=left_person src='images/persons/person3.jpg'><img class=product src='images/products/necklace.jpg'><div class=""fixation"">+</div>","null","","","exp","show_product1","29","","","3","","","","","","","","","","",""
"html-keyboard-response","286","722447","0.0-9.0-1.0-3.29","5c519ec789254700019f7934","","","","","","null","<img class=left_person src='images/persons/person3.jpg'><img class=reward src='images/zero_coins.png'><img class=product src='images/products/necklace.jpg'>","null","","","exp","show_reward1","29","","","3","0","","","","","","","","","",""
"html-keyboard-response","287","723212","0.0-9.0-1.0-4.29","5c519ec789254700019f7934","","","","","","null","<img class=left_person src='images/persons/person3.jpg'><div class=""fixation"">+</div>","null","","","exp","show_choice","29","0","2","","","","","","","","","","","",""
"html-keyboard-response","288","723977","0.0-9.0-1.0-5.29","5c519ec789254700019f7934","","","","","","null","<img class=left_person src='images/persons/person3.jpg'><img class=product src='images/products/cake.jpg'><div class=""fixation"">+</div>","null","","","exp","show_product2","29","","","3","","","","","","","","","","",""
"html-keyboard-response","289","724980","0.0-9.0-1.0-6.29","5c519ec789254700019f7934","","","","","","null","<img class=left_person src='images/persons/person3.jpg'><img class=reward src='images/one_coin.png'><img class=product src='images/products/cake.jpg'>","null","","","exp","show_reward2","29","0","2","3","0","2","1","2","1","0.834325891971119","0.190553212226844","0.441838602913987","0.535360756048151","0.750678756131058","0"
"html-keyboard-response","290","725721","0.0-9.0-1.0-0.30","5c519ec789254700019f7934","","","","","","579","<img class=left_person src='images/persons/person3.jpg'><img class=right_person src='images/persons/person2.jpg'><div class=""fixation"">+</div>","k","","","exp","choice","30","","","","","","","","","","","","","",""
"html-keyboard-response","291","726481","0.0-9.0-1.0-1.30","5c519ec789254700019f7934","","","","","","null","<img class=right_person src='images/persons/person2.jpg'><div class=""fixation"">+</div>","null","","","exp","show_choice","30","1","1","","","","","","","","","","","",""
"html-keyboard-response","292","727243","0.0-9.0-1.0-2.30","5c519ec789254700019f7934","","","","","","null","<img class=right_person src='images/persons/person2.jpg'><img class=product src='images/products/cake.jpg'><div class=""fixation"">+</div>","null","","","exp","show_product1","30","","","2","","","","","","","","","","",""
"html-keyboard-response","293","728251","0.0-9.0-1.0-3.30","5c519ec789254700019f7934","","","","","","null","<img class=right_person src='images/persons/person2.jpg'><img class=reward src='images/one_coin.png'><img class=product src='images/products/cake.jpg'>","null","","","exp","show_reward1","30","","","2","1","","","","","","","","","",""
"html-keyboard-response","294","729003","0.0-9.0-1.0-4.30","5c519ec789254700019f7934","","","","","","null","<img class=right_person src='images/persons/person2.jpg'><div class=""fixation"">+</div>","null","","","exp","show_choice","30","1","1","","","","","","","","","","","",""
"html-keyboard-response","295","729767","0.0-9.0-1.0-5.30","5c519ec789254700019f7934","","","","","","null","<img class=right_person src='images/persons/person2.jpg'><img class=product src='images/products/book.jpg'><div class=""fixation"">+</div>","null","","","exp","show_product2","30","","","2","","","","","","","","","","",""
"html-keyboard-response","296","730786","0.0-9.0-1.0-6.30","5c519ec789254700019f7934","","","","","","null","<img class=right_person src='images/persons/person2.jpg'><img class=reward src='images/zero_coins.png'><img class=product src='images/products/book.jpg'>","null","","","exp","show_reward2","30","1","1","2","1","1","0","2","1","0.812479504498076","0.15","0.423695482833348","0.541531006633969","0.725546158774749","0"
