"trial_type","trial_index","time_elapsed","internal_node_id","subject_id","success","timeout","failed_images","failed_audio","failed_video","rt","stimulus","response","view_history","question_order","phase","trial_name","trial_num","key_selected","person_selected","first_product","reward1","second_product","reward2","left_person","right_person","prob_product1","prob_product2","prob_product3","prob_product4","prob_product5","counterbalance"
"pavlovia","0","756","0.0-0.0","5c519ec789254700019f7934","","","","","","","","","","","","","","","","","","","","","","","","","","",""
"preload","1","9046","0.0-1.0","5c519ec789254700019f7934","true","false","[]","[]","[]","","","","","","","","","","","","","","","","","","","","","",""
"html-button-response","2","19280","0.0-2.0","5c519ec789254700019f7934","","","","","","10231","<h2><b>Consent to participate in a research:</b></h2><p><strong>You will be paid only after participating in each of the 4 days (including today).</p>","1","","","","","","","","","","","","","","","","","","",""
"fullscreen","3","22460","0.0-3.0","5c519ec789254700019f7934","true","","","","","","","","","","","","","","","","","","","","","","","","","",""
"instructions","4","163729","0.0-4.0-0.0","5c519ec789254700019f7934","","","","","","141260","","","[{""page_index"":0,""viewing_time"":2373},{""page_index"":1,""viewing_time"":2861},{""page_index"":2,""viewing_time"":4434},{""page_index"":3,""viewing_time"":1447},{""page_index"":4,""viewing_time"":7297},{""page_index"":5,""viewing_time"":5782},{""page_index"":6,""viewing_time"":2874},{""page_index"":7,""viewing_time"":3971},{""page_index"":8,""viewing_time"":4933},{""page_index"":9,""viewing_time"":3700},{""page_index"":10,""viewing_time"":4788},{""page_index"":11,""viewing_time"":6916},{""page_index"":12,""viewing_time"":2686},{""page_index"":13,""viewing_time"":14445},{""page_index"":14,""viewing_time"":13719},{""page_index"":15,""viewing_time"":7802},{""page_index"":16,""viewing_time"":12057},{""page_index"":17,""viewing_time"":5916},{""page_index"":18,""viewing_time"":10232},{""page_index"":19,""viewing_time"":5784},{""page_index"":20,""viewing_time"":9665},{""page_index"":21,""viewing_time"":5235},{""page_index"":22,""viewing_time"":2315}]","","","","","","","","","","","","","","","","","",""
"survey-multi-choice","5","234762","0.0-4.0-1.0","5c519ec789254700019f7934","","","","","","70996","","{""number_persons"":""5"",""number_candidates"":""2"",""number_products"":""2"",""choose_candidate"":""Press the 'S' or 'K' key with your LEFT or RIGHT hand"",""transported_product"":""False, each delivery person can only deliver two products"",""product_person"":""False, the book has the same demand no matter who is delivering it"",""value_change"":""True, as in real markets the demand may slowly change"",""game_goal"":""The goal is to choose the best I can and earn as much bonus money as I can"",""independence"":""False, each product has its own demand in the market"",""location"":""The demand for the products is the same regardless of whether the chosen delivery person appears on the left or on the right""}","","[0,1,2,3,4,5,6,7,8,9]","","","","","","","","","","","","","","","","",""
"instructions","6","254141","0.0-5.0","5c519ec789254700019f7934","","","","","","19371","","","[{""page_index"":0,""viewing_time"":2395},{""page_index"":1,""viewing_time"":5829},{""page_index"":2,""viewing_time"":3291},{""page_index"":3,""viewing_time"":3661},{""page_index"":4,""viewing_time"":2874},{""page_index"":5,""viewing_time"":1321}]","","","","","","","","","","","","","","","","","",""
"html-keyboard-response","7","256901","0.0-6.0","5c519ec789254700019f7934","","","","","","2758","<div>We will now do a few practice trials. <br> Please be ready with your fingers on <b>s</b> and <b>k</b><br><br> <img class=keyboard src='images/examples/keyboard.png'>  <br><br> <b> Press any key to begin</b></div>"," ","","","","","","","","","","","","","","","","","","",""
"html-keyboard-response","8","259115","0.0-7.0-0.0","5c519ec789254700019f7934","","","","","","1195","<img class=left_person src='images/persons/person4.jpg'><img class=right_person src='images/persons/person3.jpg'><div class=""fixation"">+</div>","s","","","practice","choice","0","","","","","","","","","","","","","",""
"html-keyboard-response","9","259876","0.0-7.0-1.0","5c519ec789254700019f7934","","","","","","null","<img class=left_person src='images/persons/person4.jpg'><div class=""fixation"">+</div>","null","","","practice","show_choice","0","0","3","","","","","","","","","","","",""
"html-keyboard-response","10","260632","0.0-7.0-2.0","5c519ec789254700019f7934","","","","","","null","<img class=left_person src='images/persons/person4.jpg'><img class=product src='images/products/necklace.jpg'><div class=""fixation"">+</div>","null","","","practice","show_product1","0","","","3","","","","","","","","","","",""
"html-keyboard-response","11","261646","0.0-7.0-3.0","5c519ec789254700019f7934","","","","","","null","<img class=left_person src='images/persons/person4.jpg'><img class=reward src='images/one_coin.png'><img class=product src='images/products/necklace.jpg'>","null","","","practice","show_reward1","0","","","3","1","","","","","","","","","",""
"html-keyboard-response","12","262408","0.0-7.0-4.0","5c519ec789254700019f7934","","","","","","null","<img class=left_person src='images/persons/person4.jpg'><div class=""fixation"">+</div>","null","","","practice","show_choice","0","0","3","","","","","","","","","","","",""
"html-keyboard-response","13","263163","0.0-7.0-5.0","5c519ec789254700019f7934","","","","","","null","<img class=left_person src='images/persons/person4.jpg'><img class=product src='images/products/printer.jpg'><div class=""fixation"">+</div>","null","","","practice","show_product2","0","","","","","4","","","","","","","","",""
"html-keyboard-response","14","264168","0.0-7.0-6.0","5c519ec789254700019f7934","","","","","","null","<img class=left_person src='images/persons/person4.jpg'><img class=reward src='images/zero_coins.png'><img class=product src='images/products/printer.jpg'>","null","","","practice","show_reward2","0","0","3","3","1","4","0","","","","","","","",""
"html-keyboard-response","15","266401","0.0-7.0-0.1","5c519ec789254700019f7934","","","","","","2069","<img class=left_person src='images/persons/person5.jpg'><img class=right_person src='images/persons/person4.jpg'><div class=""fixation"">+</div>","s","","","practice","choice","1","","","","","","","","","","","","","",""
"html-keyboard-response","16","267164","0.0-7.0-1.1","5c519ec789254700019f7934","","","","","","null","<img class=left_person src='images/persons/person5.jpg'><div class=""fixation"">+</div>","null","","","practice","show_choice","1","0","4","","","","","","","","","","","",""
"html-keyboard-response","17","267929","0.0-7.0-2.1","5c519ec789254700019f7934","","","","","","null","<img class=left_person src='images/persons/person5.jpg'><img class=product src='images/products/printer.jpg'><div class=""fixation"">+</div>","null","","","practice","show_product1","1","","","4","","","","","","","","","","",""
"html-keyboard-response","18","268937","0.0-7.0-3.1","5c519ec789254700019f7934","","","","","","null","<img class=left_person src='images/persons/person5.jpg'><img class=reward src='images/one_coin.png'><img class=product src='images/products/printer.jpg'>","null","","","practice","show_reward1","1","","","4","1","","","","","","","","","",""
"html-keyboard-response","19","269696","0.0-7.0-4.1","5c519ec789254700019f7934","","","","","","null","<img class=left_person src='images/persons/person5.jpg'><div class=""fixation"">+</div>","null","","","practice","show_choice","1","0","4","","","","","","","","","","","",""
"html-keyboard-response","20","270450","0.0-7.0-5.1","5c519ec789254700019f7934","","","","","","null","<img class=left_person src='images/persons/person5.jpg'><img class=product src='images/products/bicycle.jpg'><div class=""fixation"">+</div>","null","","","practice","show_product2","1","","","","","0","","","","","","","","",""
"html-keyboard-response","21","271463","0.0-7.0-6.1","5c519ec789254700019f7934","","","","","","null","<img class=left_person src='images/persons/person5.jpg'><img class=reward src='images/one_coin.png'><img class=product src='images/products/bicycle.jpg'>","null","","","practice","show_reward2","1","0","4","4","1","0","1","","","","","","","",""
"html-keyboard-response","22","272997","0.0-7.0-0.2","5c519ec789254700019f7934","","","","","","1381","<img class=left_person src='images/persons/person3.jpg'><img class=right_person src='images/persons/person4.jpg'><div class=""fixation"">+</div>","s","","","practice","choice","2","","","","","","","","","","","","","",""
"html-keyboard-response","23","273762","0.0-7.0-1.2","5c519ec789254700019f7934","","","","","","null","<img class=left_person src='images/persons/person3.jpg'><div class=""fixation"">+</div>","null","","","practice","show_choice","2","0","2","","","","","","","","","","","",""
"html-keyboard-response","24","274516","0.0-7.0-2.2","5c519ec789254700019f7934","","","","","","null","<img class=left_person src='images/persons/person3.jpg'><img class=product src='images/products/cake.jpg'><div class=""fixation"">+</div>","null","","","practice","show_product1","2","","","2","","","","","","","","","","",""
"html-keyboard-response","25","275530","0.0-7.0-3.2","5c519ec789254700019f7934","","","","","","null","<img class=left_person src='images/persons/person3.jpg'><img class=reward src='images/one_coin.png'><img class=product src='images/products/cake.jpg'>","null","","","practice","show_reward1","2","","","2","1","","","","","","","","","",""
"html-keyboard-response","26","276293","0.0-7.0-4.2","5c519ec789254700019f7934","","","","","","null","<img class=left_person src='images/persons/person3.jpg'><div class=""fixation"">+</div>","null","","","practice","show_choice","2","0","2","","","","","","","","","","","",""
"html-keyboard-response","27","277048","0.0-7.0-5.2","5c519ec789254700019f7934","","","","","","null","<img class=left_person src='images/persons/person3.jpg'><img class=product src='images/products/necklace.jpg'><div class=""fixation"">+</div>","null","","","practice","show_product2","2","","","","","3","","","","","","","","",""
"html-keyboard-response","28","278063","0.0-7.0-6.2","5c519ec789254700019f7934","","","","","","null","<img class=left_person src='images/persons/person3.jpg'><img class=reward src='images/zero_coins.png'><img class=product src='images/products/necklace.jpg'>","null","","","practice","show_reward2","2","0","2","2","1","3","0","","","","","","","",""
"html-keyboard-response","29","279673","0.0-7.0-0.3","5c519ec789254700019f7934","","","","","","1457","<img class=left_person src='images/persons/person4.jpg'><img class=right_person src='images/persons/person3.jpg'><div class=""fixation"">+</div>","s","","","practice","choice","3","","","","","","","","","","","","","",""
"html-keyboard-response","30","280428","0.0-7.0-1.3","5c519ec789254700019f7934","","","","","","null","<img class=left_person src='images/persons/person4.jpg'><div class=""fixation"">+</div>","null","","","practice","show_choice","3","0","3","","","","","","","","","","","",""
"html-keyboard-response","31","281194","0.0-7.0-2.3","5c519ec789254700019f7934","","","","","","null","<img class=left_person src='images/persons/person4.jpg'><img class=product src='images/products/printer.jpg'><div class=""fixation"">+</div>","null","","","practice","show_product1","3","","","4","","","","","","","","","","",""
"html-keyboard-response","32","282197","0.0-7.0-3.3","5c519ec789254700019f7934","","","","","","null","<img class=left_person src='images/persons/person4.jpg'><img class=reward src='images/one_coin.png'><img class=product src='images/products/printer.jpg'>","null","","","practice","show_reward1","3","","","4","1","","","","","","","","","",""
"html-keyboard-response","33","282949","0.0-7.0-4.3","5c519ec789254700019f7934","","","","","","null","<img class=left_person src='images/persons/person4.jpg'><div class=""fixation"">+</div>","null","","","practice","show_choice","3","0","3","","","","","","","","","","","",""
"html-keyboard-response","34","283713","0.0-7.0-5.3","5c519ec789254700019f7934","","","","","","null","<img class=left_person src='images/persons/person4.jpg'><img class=product src='images/products/necklace.jpg'><div class=""fixation"">+</div>","null","","","practice","show_product2","3","","","","","3","","","","","","","","",""
"html-keyboard-response","35","284729","0.0-7.0-6.3","5c519ec789254700019f7934","","","","","","null","<img class=left_person src='images/persons/person4.jpg'><img class=reward src='images/zero_coins.png'><img class=product src='images/products/necklace.jpg'>","null","","","practice","show_reward2","3","0","3","4","1","3","0","","","","","","","",""
"html-keyboard-response","36","285736","0.0-7.0-0.4","5c519ec789254700019f7934","","","","","","854","<img class=left_person src='images/persons/person5.jpg'><img class=right_person src='images/persons/person1.jpg'><div class=""fixation"">+</div>","s","","","practice","choice","4","","","","","","","","","","","","","",""
"html-keyboard-response","37","286497","0.0-7.0-1.4","5c519ec789254700019f7934","","","","","","null","<img class=left_person src='images/persons/person5.jpg'><div class=""fixation"">+</div>","null","","","practice","show_choice","4","0","4","","","","","","","","","","","",""
"html-keyboard-response","38","287261","0.0-7.0-2.4","5c519ec789254700019f7934","","","","","","null","<img class=left_person src='images/persons/person5.jpg'><img class=product src='images/products/bicycle.jpg'><div class=""fixation"">+</div>","null","","","practice","show_product1","4","","","0","","","","","","","","","","",""
"html-keyboard-response","39","288277","0.0-7.0-3.4","5c519ec789254700019f7934","","","","","","null","<img class=left_person src='images/persons/person5.jpg'><img class=reward src='images/one_coin.png'><img class=product src='images/products/bicycle.jpg'>","null","","","practice","show_reward1","4","","","0","1","","","","","","","","","",""
"html-keyboard-response","40","289042","0.0-7.0-4.4","5c519ec789254700019f7934","","","","","","null","<img class=left_person src='images/persons/person5.jpg'><div class=""fixation"">+</div>","null","","","practice","show_choice","4","0","4","","","","","","","","","","","",""
"html-keyboard-response","41","289809","0.0-7.0-5.4","5c519ec789254700019f7934","","","","","","null","<img class=left_person src='images/persons/person5.jpg'><img class=product src='images/products/printer.jpg'><div class=""fixation"">+</div>","null","","","practice","show_product2","4","","","","","4","","","","","","","","",""
"html-keyboard-response","42","290812","0.0-7.0-6.4","5c519ec789254700019f7934","","","","","","null","<img class=left_person src='images/persons/person5.jpg'><img class=reward src='images/one_coin.png'><img class=product src='images/products/printer.jpg'>","null","","","practice","show_reward2","4","0","4","0","1","4","1","","","","","","","",""
"html-keyboard-response","43","291658","0.0-7.0-0.5","5c519ec789254700019f7934","","","","","","692","<img class=left_person src='images/persons/person5.jpg'><img class=right_person src='images/persons/person1.jpg'><div class=""fixation"">+</div>","s","","","practice","choice","5","","","","","","","","","","","","","",""
"html-keyboard-response","44","292411","0.0-7.0-1.5","5c519ec789254700019f7934","","","","","","null","<img class=left_person src='images/persons/person5.jpg'><div class=""fixation"">+</div>","null","","","practice","show_choice","5","0","4","","","","","","","","","","","",""
"html-keyboard-response","45","293176","0.0-7.0-2.5","5c519ec789254700019f7934","","","","","","null","<img class=left_person src='images/persons/person5.jpg'><img class=product src='images/products/bicycle.jpg'><div class=""fixation"">+</div>","null","","","practice","show_product1","5","","","0","","","","","","","","","","",""
"html-keyboard-response","46","294180","0.0-7.0-3.5","5c519ec789254700019f7934","","","","","","null","<img class=left_person src='images/persons/person5.jpg'><img class=reward src='images/zero_coins.png'><img class=product src='images/products/bicycle.jpg'>","null","","","practice","show_reward1","5","","","0","0","","","","","","","","","",""
"html-keyboard-response","47","294943","0.0-7.0-4.5","5c519ec789254700019f7934","","","","","","null","<img class=left_person src='images/persons/person5.jpg'><div class=""fixation"">+</div>","null","","","practice","show_choice","5","0","4","","","","","","","","","","","",""
"html-keyboard-response","48","295695","0.0-7.0-5.5","5c519ec789254700019f7934","","","","","","null","<img class=left_person src='images/persons/person5.jpg'><img class=product src='images/products/printer.jpg'><div class=""fixation"">+</div>","null","","","practice","show_product2","5","","","","","4","","","","","","","","",""
"html-keyboard-response","49","296711","0.0-7.0-6.5","5c519ec789254700019f7934","","","","","","null","<img class=left_person src='images/persons/person5.jpg'><img class=reward src='images/zero_coins.png'><img class=product src='images/products/printer.jpg'>","null","","","practice","show_reward2","5","0","4","0","0","4","0","","","","","","","",""
"html-keyboard-response","50","298542","0.0-7.0-0.6","5c519ec789254700019f7934","","","","","","1678","<img class=left_person src='images/persons/person1.jpg'><img class=right_person src='images/persons/person5.jpg'><div class=""fixation"">+</div>","s","","","practice","choice","6","","","","","","","","","","","","","",""
"html-keyboard-response","51","299297","0.0-7.0-1.6","5c519ec789254700019f7934","","","","","","null","<img class=left_person src='images/persons/person1.jpg'><div class=""fixation"">+</div>","null","","","practice","show_choice","6","0","0","","","","","","","","","","","",""
"html-keyboard-response","52","300061","0.0-7.0-2.6","5c519ec789254700019f7934","","","","","","null","<img class=left_person src='images/persons/person1.jpg'><img class=product src='images/products/bicycle.jpg'><div class=""fixation"">+</div>","null","","","practice","show_product1","6","","","0","","","","","","","","","","",""
"html-keyboard-response","53","301063","0.0-7.0-3.6","5c519ec789254700019f7934","","","","","","null","<img class=left_person src='images/persons/person1.jpg'><img class=reward src='images/zero_coins.png'><img class=product src='images/products/bicycle.jpg'>","null","","","practice","show_reward1","6","","","0","0","","","","","","","","","",""
"html-keyboard-response","54","301827","0.0-7.0-4.6","5c519ec789254700019f7934","","","","","","null","<img class=left_person src='images/persons/person1.jpg'><div class=""fixation"">+</div>","null","","","practice","show_choice","6","0","0","","","","","","","","","","","",""
"html-keyboard-response","55","302583","0.0-7.0-5.6","5c519ec789254700019f7934","","","","","","null","<img class=left_person src='images/persons/person1.jpg'><img class=product src='images/products/book.jpg'><div class=""fixation"">+</div>","null","","","practice","show_product2","6","","","","","1","","","","","","","","",""
"html-keyboard-response","56","303595","0.0-7.0-6.6","5c519ec789254700019f7934","","","","","","null","<img class=left_person src='images/persons/person1.jpg'><img class=reward src='images/zero_coins.png'><img class=product src='images/products/book.jpg'>","null","","","practice","show_reward2","6","0","0","0","0","1","0","","","","","","","",""
"html-keyboard-response","57","305553","0.0-7.0-0.7","5c519ec789254700019f7934","","","","","","1804","<img class=left_person src='images/persons/person2.jpg'><img class=right_person src='images/persons/person3.jpg'><div class=""fixation"">+</div>","s","","","practice","choice","7","","","","","","","","","","","","","",""
"html-keyboard-response","58","306311","0.0-7.0-1.7","5c519ec789254700019f7934","","","","","","null","<img class=left_person src='images/persons/person2.jpg'><div class=""fixation"">+</div>","null","","","practice","show_choice","7","0","1","","","","","","","","","","","",""
"html-keyboard-response","59","307075","0.0-7.0-2.7","5c519ec789254700019f7934","","","","","","null","<img class=left_person src='images/persons/person2.jpg'><img class=product src='images/products/book.jpg'><div class=""fixation"">+</div>","null","","","practice","show_product1","7","","","1","","","","","","","","","","",""
"html-keyboard-response","60","308081","0.0-7.0-3.7","5c519ec789254700019f7934","","","","","","null","<img class=left_person src='images/persons/person2.jpg'><img class=reward src='images/one_coin.png'><img class=product src='images/products/book.jpg'>","null","","","practice","show_reward1","7","","","1","1","","","","","","","","","",""
"html-keyboard-response","61","308844","0.0-7.0-4.7","5c519ec789254700019f7934","","","","","","null","<img class=left_person src='images/persons/person2.jpg'><div class=""fixation"">+</div>","null","","","practice","show_choice","7","0","1","","","","","","","","","","","",""
"html-keyboard-response","62","309609","0.0-7.0-5.7","5c519ec789254700019f7934","","","","","","null","<img class=left_person src='images/persons/person2.jpg'><img class=product src='images/products/cake.jpg'><div class=""fixation"">+</div>","null","","","practice","show_product2","7","","","","","2","","","","","","","","",""
"html-keyboard-response","63","310612","0.0-7.0-6.7","5c519ec789254700019f7934","","","","","","null","<img class=left_person src='images/persons/person2.jpg'><img class=reward src='images/one_coin.png'><img class=product src='images/products/cake.jpg'>","null","","","practice","show_reward2","7","0","1","1","1","2","1","","","","","","","",""
"html-keyboard-response","64","311922","0.0-7.0-0.8","5c519ec789254700019f7934","","","","","","1157","<img class=left_person src='images/persons/person3.jpg'><img class=right_person src='images/persons/person4.jpg'><div class=""fixation"">+</div>","s","","","practice","choice","8","","","","","","","","","","","","","",""
"html-keyboard-response","65","312678","0.0-7.0-1.8","5c519ec789254700019f7934","","","","","","null","<img class=left_person src='images/persons/person3.jpg'><div class=""fixation"">+</div>","null","","","practice","show_choice","8","0","2","","","","","","","","","","","",""
"html-keyboard-response","66","313441","0.0-7.0-2.8","5c519ec789254700019f7934","","","","","","null","<img class=left_person src='images/persons/person3.jpg'><img class=product src='images/products/necklace.jpg'><div class=""fixation"">+</div>","null","","","practice","show_product1","8","","","3","","","","","","","","","","",""
"html-keyboard-response","67","314444","0.0-7.0-3.8","5c519ec789254700019f7934","","","","","","null","<img class=left_person src='images/persons/person3.jpg'><img class=reward src='images/one_coin.png'><img class=product src='images/products/necklace.jpg'>","null","","","practice","show_reward1","8","","","3","1","","","","","","","","","",""
"html-keyboard-response","68","315196","0.0-7.0-4.8","5c519ec789254700019f7934","","","","","","null","<img class=left_person src='images/persons/person3.jpg'><div class=""fixation"">+</div>","null","","","practice","show_choice","8","0","2","","","","","","","","","","","",""
"html-keyboard-response","69","315963","0.0-7.0-5.8","5c519ec789254700019f7934","","","","","","null","<img class=left_person src='images/persons/person3.jpg'><img class=product src='images/products/cake.jpg'><div class=""fixation"">+</div>","null","","","practice","show_product2","8","","","","","2","","","","","","","","",""
"html-keyboard-response","70","316975","0.0-7.0-6.8","5c519ec789254700019f7934","","","","","","null","<img class=left_person src='images/persons/person3.jpg'><img class=reward src='images/one_coin.png'><img class=product src='images/products/cake.jpg'>","null","","","practice","show_reward2","8","0","2","3","1","2","1","","","","","","","",""
"html-keyboard-response","71","318758","0.0-7.0-0.9","5c519ec789254700019f7934","","","","","","1626","<img class=left_person src='images/persons/person1.jpg'><img class=right_person src='images/persons/person5.jpg'><div class=""fixation"">+</div>","k","","","practice","choice","9","","","","","","","","","","","","","",""
"html-keyboard-response","72","319510","0.0-7.0-1.9","5c519ec789254700019f7934","","","","","","null","<img class=right_person src='images/persons/person5.jpg'><div class=""fixation"">+</div>","null","","","practice","show_choice","9","1","4","","","","","","","","","","","",""
"html-keyboard-response","73","320275","0.0-7.0-2.9","5c519ec789254700019f7934","","","","","","null","<img class=right_person src='images/persons/person5.jpg'><img class=product src='images/products/printer.jpg'><div class=""fixation"">+</div>","null","","","practice","show_product1","9","","","4","","","","","","","","","","",""
"html-keyboard-response","74","321277","0.0-7.0-3.9","5c519ec789254700019f7934","","","","","","null","<img class=right_person src='images/persons/person5.jpg'><img class=reward src='images/zero_coins.png'><img class=product src='images/products/printer.jpg'>","null","","","practice","show_reward1","9","","","4","0","","","","","","","","","",""
"html-keyboard-response","75","322041","0.0-7.0-4.9","5c519ec789254700019f7934","","","","","","null","<img class=right_person src='images/persons/person5.jpg'><div class=""fixation"">+</div>","null","","","practice","show_choice","9","1","4","","","","","","","","","","","",""
"html-keyboard-response","76","322795","0.0-7.0-5.9","5c519ec789254700019f7934","","","","","","null","<img class=right_person src='images/persons/person5.jpg'><img class=product src='images/products/bicycle.jpg'><div class=""fixation"">+</div>","null","","","practice","show_product2","9","","","","","0","","","","","","","","",""
"html-keyboard-response","77","323798","0.0-7.0-6.9","5c519ec789254700019f7934","","","","","","null","<img class=right_person src='images/persons/person5.jpg'><img class=reward src='images/zero_coins.png'><img class=product src='images/products/bicycle.jpg'>","null","","","practice","show_reward2","9","1","4","4","0","0","0","","","","","","","",""
"html-keyboard-response","78","326867","0.0-8.0","5c519ec789254700019f7934","","","","","","2901","<div> Good job! Practice completed. <br> <br> We will now move on to the real game. Do your best to win as much reward as you can. Good luck!<br><br> <b>Press any key to continue.</b></div>"," ","","","","","","","","","","","","","","","","","","",""
"html-keyboard-response","79","330639","0.0-9.0-0.0","5c519ec789254700019f7934","","","","","","2761","<p><u>We will now start period number<b> 1 out of 4</b> of your business</u></p>Each period will include 50 days after which you will have a short break and then continue from the exact same point. <br> <br><p style=""text-align: left"">Use the LEFT or RIGHT response keys (""s"" or ""k"", in correspondence) to make your selection. <br> Please do your best to win as many coins as possible!<br> </p><p style=""text-align: left""><b>Remember that:</b> <br> 1) The demand for each product is specific to that product alone <br> 2) The demand for each product may gradually change over time </p><p> <b> <u>Please note that participants who engage with the task and pay close attention earn a much higher bonus than participants who respond randomly</u> </b> </p><p><b>Press SPACE to start</b></p>"," ","","","","","","","","","","","","","","","","","","",""
"html-keyboard-response","80","332632","0.0-9.0-1.0-0.0","5c519ec789254700019f7934","","","","","","986","<img class=left_person src='images/persons/person4.jpg'><img class=right_person src='images/persons/person5.jpg'><div class=""fixation"">+</div>","k","","","exp","choice","0","","","","","","","","","","","","","",""
"html-keyboard-response","81","333391","0.0-9.0-1.0-1.0","5c519ec789254700019f7934","","","","","","null","<img class=right_person src='images/persons/person5.jpg'><div class=""fixation"">+</div>","null","","","exp","show_choice","0","1","4","","","","","","","","","","","",""
"html-keyboard-response","82","334157","0.0-9.0-1.0-2.0","5c519ec789254700019f7934","","","","","","null","<img class=right_person src='images/persons/person5.jpg'><img class=product src='images/products/bicycle.jpg'><div class=""fixation"">+</div>","null","","","exp","show_product1","0","","","0","","","","","","","","","","",""
"html-keyboard-response","83","335162","0.0-9.0-1.0-3.0","5c519ec789254700019f7934","","","","","","null","<img class=right_person src='images/persons/person5.jpg'><img class=reward src='images/zero_coins.png'><img class=product src='images/products/bicycle.jpg'>","null","","","exp","show_reward1","0","","","0","0","","","","","","","","","",""
"html-keyboard-response","84","335926","0.0-9.0-1.0-4.0","5c519ec789254700019f7934","","","","","","null","<img class=right_person src='images/persons/person5.jpg'><div class=""fixation"">+</div>","null","","","exp","show_choice","0","1","4","","","","","","","","","","","",""
"html-keyboard-response","85","336692","0.0-9.0-1.0-5.0","5c519ec789254700019f7934","","","","","","null","<img class=right_person src='images/persons/person5.jpg'><img class=product src='images/products/printer.jpg'><div class=""fixation"">+</div>","null","","","exp","show_product2","0","","","0","","","","","","","","","","",""
"html-keyboard-response","86","337695","0.0-9.0-1.0-6.0","5c519ec789254700019f7934","","","","","","null","<img class=right_person src='images/persons/person5.jpg'><img class=reward src='images/one_coin.png'><img class=product src='images/products/printer.jpg'>","null","","","exp","show_reward2","0","1","4","0","0","4","1","3","4","0.343502790248021","0.778893313347362","0.398421248164959","0.339054721035063","0.289537803153507","0"
"html-keyboard-response","87","338486","0.0-9.0-1.0-0.1","5c519ec789254700019f7934","","","","","","639","<img class=left_person src='images/persons/person5.jpg'><img class=right_person src='images/persons/person4.jpg'><div class=""fixation"">+</div>","k","","","exp","choice","1","","","","","","","","","","","","","",""
"html-keyboard-response","88","339242","0.0-9.0-1.0-1.1","5c519ec789254700019f7934","","","","","","null","<img class=right_person src='images/persons/person4.jpg'><div class=""fixation"">+</div>","null","","","exp","show_choice","1","1","3","","","","","","","","","","","",""
"html-keyboard-response","89","340008","0.0-9.0-1.0-2.1","5c519ec789254700019f7934","","","","","","null","<img class=right_person src='images/persons/person4.jpg'><img class=product src='images/products/necklace.jpg'><div class=""fixation"">+</div>","null","","","exp","show_product1","1","","","3","","","","","","","","","","",""
"html-keyboard-response","90","341013","0.0-9.0-1.0-3.1","5c519ec789254700019f7934","","","","","","null","<img class=right_person src='images/persons/person4.jpg'><img class=reward src='images/zero_coins.png'><img class=product src='images/products/necklace.jpg'>","null","","","exp","show_reward1","1","","","3","0","","","","","","","","","",""
"html-keyboard-response","91","341777","0.0-9.0-1.0-4.1","5c519ec789254700019f7934","","","","","","null","<img class=right_person src='images/persons/person4.jpg'><div class=""fixation"">+</div>","null","","","exp","show_choice","1","1","3","","","","","","","","","","","",""
"html-keyboard-response","92","342541","0.0-9.0-1.0-5.1","5c519ec789254700019f7934","","","","","","null","<img class=right_person src='images/persons/person4.jpg'><img class=product src='images/products/printer.jpg'><div class=""fixation"">+</div>","null","","","exp","show_product2","1","","","3","","","","","","","","","","",""
"html-keyboard-response","93","343543","0.0-9.0-1.0-6.1","5c519ec789254700019f7934","","","","","","null","<img class=right_person src='images/persons/person4.jpg'><img class=reward src='images/zero_coins.png'><img class=product src='images/products/printer.jpg'>","null","","","exp","show_reward2","1","1","3","3","0","4","0","4","3","0.329994350559224","0.846054525321231","0.387798084219054","0.335965829983181","0.299846721116845","0"
"html-keyboard-response","94","344842","0.0-9.0-1.0-0.2","5c519ec789254700019f7934","","","","","","1144","<img class=left_person src='images/persons/person2.jpg'><img class=right_person src='images/persons/person1.jpg'><div class=""fixation"">+</div>","k","","","exp","choice","2","","","","","","","","","","","","","",""
"html-keyboard-response","95","345594","0.0-9.0-1.0-1.2","5c519ec789254700019f7934","","","","","","null","<img class=right_person src='images/persons/person1.jpg'><div class=""fixation"">+</div>","null","","","exp","show_choice","2","1","0","","","","","","","","","","","",""
"html-keyboard-response","96","346360","0.0-9.0-1.0-2.2","5c519ec789254700019f7934","","","","","","null","<img class=right_person src='images/persons/person1.jpg'><img class=product src='images/products/bicycle.jpg'><div class=""fixation"">+</div>","null","","","exp","show_product1","2","","","0","","","","","","","","","","",""
"html-keyboard-response","97","347377","0.0-9.0-1.0-3.2","5c519ec789254700019f7934","","","","","","null","<img class=right_person src='images/persons/person1.jpg'><img class=reward src='images/zero_coins.png'><img class=product src='images/products/bicycle.jpg'>","null","","","exp","show_reward1","2","","","0","0","","","","","","","","","",""
"html-keyboard-response","98","348128","0.0-9.0-1.0-4.2","5c519ec789254700019f7934","","","","","","null","<img class=right_person src='images/persons/person1.jpg'><div class=""fixation"">+</div>","null","","","exp","show_choice","2","1","0","","","","","","","","","","","",""
"html-keyboard-response","99","348893","0.0-9.0-1.0-5.2","5c519ec789254700019f7934","","","","","","null","<img class=right_person src='images/persons/person1.jpg'><img class=product src='images/products/book.jpg'><div class=""fixation"">+</div>","null","","","exp","show_product2","2","","","0","","","","","","","","","","",""
"html-keyboard-response","100","349895","0.0-9.0-1.0-6.2","5c519ec789254700019f7934","","","","","","null","<img class=right_person src='images/persons/person1.jpg'><img class=reward src='images/zero_coins.png'><img class=product src='images/products/book.jpg'>","null","","","exp","show_reward2","2","1","0","0","0","1","0","1","0","0.293527371882266","0.85","0.337567205706629","0.286250421609827","0.274843270022677","0"
"html-keyboard-response","101","351016","0.0-9.0-1.0-0.3","5c519ec789254700019f7934","","","","","","969","<img class=left_person src='images/persons/person4.jpg'><img class=right_person src='images/persons/person3.jpg'><div class=""fixation"">+</div>","k","","","exp","choice","3","","","","","","","","","","","","","",""
"html-keyboard-response","102","351776","0.0-9.0-1.0-1.3","5c519ec789254700019f7934","","","","","","null","<img class=right_person src='images/persons/person3.jpg'><div class=""fixation"">+</div>","null","","","exp","show_choice","3","1","2","","","","","","","","","","","",""
"html-keyboard-response","103","352543","0.0-9.0-1.0-2.3","5c519ec789254700019f7934","","","","","","null","<img class=right_person src='images/persons/person3.jpg'><img class=product src='images/products/cake.jpg'><div class=""fixation"">+</div>","null","","","exp","show_product1","3","","","2","","","","","","","","","","",""
"html-keyboard-response","104","353559","0.0-9.0-1.0-3.3","5c519ec789254700019f7934","","","","","","null","<img class=right_person src='images/persons/person3.jpg'><img class=reward src='images/zero_coins.png'><img class=product src='images/products/cake.jpg'>","null","","","exp","show_reward1","3","","","2","0","","","","","","","","","",""
"html-keyboard-response","105","354326","0.0-9.0-1.0-4.3","5c519ec789254700019f7934","","","","","","null","<img class=right_person src='images/persons/person3.jpg'><div class=""fixation"">+</div>","null","","","exp","show_choice","3","1","2","","","","","","","","","","","",""
"html-keyboard-response","106","355091","0.0-9.0-1.0-5.3","5c519ec789254700019f7934","","","","","","null","<img class=right_person src='images/persons/person3.jpg'><img class=product src='images/products/necklace.jpg'><div class=""fixation"">+</div>","null","","","exp","show_product2","3","","","2","","","","","","","","","","",""
"html-keyboard-response","107","356095","0.0-9.0-1.0-6.3","5c519ec789254700019f7934","","","","","","null","<img class=right_person src='images/persons/person3.jpg'><img class=reward src='images/zero_coins.png'><img class=product src='images/products/necklace.jpg'>","null","","","exp","show_reward2","3","1","2","2","0","3","0","3","2","0.280938725383915","0.846757000707076","0.33206206567583","0.278807069270183","0.236718868629124","0"
"html-keyboard-response","108","357845","0.0-9.0-1.0-0.4","5c519ec789254700019f7934","","","","","","1582","<img class=left_person src='images/persons/person5.jpg'><img class=right_person src='images/persons/person1.jpg'><div class=""fixation"">+</div>","s","","","exp","choice","4","","","","","","","","","","","","","",""
"html-keyboard-response","109","358610","0.0-9.0-1.0-1.4","5c519ec789254700019f7934","","","","","","null","<img class=left_person src='images/persons/person5.jpg'><div class=""fixation"">+</div>","null","","","exp","show_choice","4","0","4","","","","","","","","","","","",""
"html-keyboard-response","110","359376","0.0-9.0-1.0-2.4","5c519ec789254700019f7934","","","","","","null","<img class=left_person src='images/persons/person5.jpg'><img class=product src='images/products/printer.jpg'><div class=""fixation"">+</div>","null","","","exp","show_product1","4","","","4","","","","","","","","","","",""
"html-keyboard-response","111","360378","0.0-9.0-1.0-3.4","5c519ec789254700019f7934","","","","","","null","<img class=left_person src='images/persons/person5.jpg'><img class=reward src='images/zero_coins.png'><img class=product src='images/products/printer.jpg'>","null","","","exp","show_reward1","4","","","4","0","","","","","","","","","",""
"html-keyboard-response","112","361144","0.0-9.0-1.0-4.4","5c519ec789254700019f7934","","","","","","null","<img class=left_person src='images/persons/person5.jpg'><div class=""fixation"">+</div>","null","","","exp","show_choice","4","0","4","","","","","","","","","","","",""
"html-keyboard-response","113","361909","0.0-9.0-1.0-5.4","5c519ec789254700019f7934","","","","","","null","<img class=left_person src='images/persons/person5.jpg'><img class=product src='images/products/bicycle.jpg'><div class=""fixation"">+</div>","null","","","exp","show_product2","4","","","4","","","","","","","","","","",""
"html-keyboard-response","114","362911","0.0-9.0-1.0-6.4","5c519ec789254700019f7934","","","","","","null","<img class=left_person src='images/persons/person5.jpg'><img class=reward src='images/zero_coins.png'><img class=product src='images/products/bicycle.jpg'>","null","","","exp","show_reward2","4","0","4","4","0","0","0","4","0","0.221197409994924","0.85","0.358751459715856","0.243988636266297","0.214196326335405","0"
"html-keyboard-response","115","364487","0.0-9.0-1.0-0.5","5c519ec789254700019f7934","","","","","","1423","<img class=left_person src='images/persons/person4.jpg'><img class=right_person src='images/persons/person3.jpg'><div class=""fixation"">+</div>","k","","","exp","choice","5","","","","","","","","","","","","","",""
"html-keyboard-response","116","365242","0.0-9.0-1.0-1.5","5c519ec789254700019f7934","","","","","","null","<img class=right_person src='images/persons/person3.jpg'><div class=""fixation"">+</div>","null","","","exp","show_choice","5","1","2","","","","","","","","","","","",""
"html-keyboard-response","117","366009","0.0-9.0-1.0-2.5","5c519ec789254700019f7934","","","","","","null","<img class=right_person src='images/persons/person3.jpg'><img class=product src='images/products/cake.jpg'><div class=""fixation"">+</div>","null","","","exp","show_product1","5","","","2","","","","","","","","","","",""
"html-keyboard-response","118","367014","0.0-9.0-1.0-3.5","5c519ec789254700019f7934","","","","","","null","<img class=right_person src='images/persons/person3.jpg'><img class=reward src='images/one_coin.png'><img class=product src='images/products/cake.jpg'>","null","","","exp","show_reward1","5","","","2","1","","","","","","","","","",""
"html-keyboard-response","119","367774","0.0-9.0-1.0-4.5","5c519ec789254700019f7934","","","","","","null","<img class=right_person src='images/persons/person3.jpg'><div class=""fixation"">+</div>","null","","","exp","show_choice","5","1","2","","","","","","","","","","","",""
"html-keyboard-response","120","368526","0.0-9.0-1.0-5.5","5c519ec789254700019f7934","","","","","","null","<img class=right_person src='images/persons/person3.jpg'><img class=product src='images/products/necklace.jpg'><div class=""fixation"">+</div>","null","","","exp","show_product2","5","","","2","","","","","","","","","","",""
"html-keyboard-response","121","369542","0.0-9.0-1.0-6.5","5c519ec789254700019f7934","","","","","","null","<img class=right_person src='images/persons/person3.jpg'><img class=reward src='images/zero_coins.png'><img class=product src='images/products/necklace.jpg'>","null","","","exp","show_reward2","5","1","2","2","1","3","0","3","2","0.208110415056518","0.85","0.365527449429072","0.25735296143425","0.222663034807391","0"
"html-keyboard-response","122","370633","0.0-9.0-1.0-0.6","5c519ec789254700019f7934","","","","","","936","<img class=left_person src='images/persons/person2.jpg'><img class=right_person src='images/persons/person3.jpg'><div class=""fixation"">+</div>","s","","","exp","choice","6","","","","","","","","","","","","","",""
"html-keyboard-response","123","371392","0.0-9.0-1.0-1.6","5c519ec789254700019f7934","","","","","","null","<img class=left_person src='images/persons/person2.jpg'><div class=""fixation"">+</div>","null","","","exp","show_choice","6","0","1","","","","","","","","","","","",""
"html-keyboard-response","124","372143","0.0-9.0-1.0-2.6","5c519ec789254700019f7934","","","","","","null","<img class=left_person src='images/persons/person2.jpg'><img class=product src='images/products/book.jpg'><div class=""fixation"">+</div>","null","","","exp","show_product1","6","","","1","","","","","","","","","","",""
"html-keyboard-response","125","373160","0.0-9.0-1.0-3.6","5c519ec789254700019f7934","","","","","","null","<img class=left_person src='images/persons/person2.jpg'><img class=reward src='images/one_coin.png'><img class=product src='images/products/book.jpg'>","null","","","exp","show_reward1","6","","","1","1","","","","","","","","","",""
"html-keyboard-response","126","373922","0.0-9.0-1.0-4.6","5c519ec789254700019f7934","","","","","","null","<img class=left_person src='images/persons/person2.jpg'><div class=""fixation"">+</div>","null","","","exp","show_choice","6","0","1","","","","","","","","","","","",""
"html-keyboard-response","127","374676","0.0-9.0-1.0-5.6","5c519ec789254700019f7934","","","","","","null","<img class=left_person src='images/persons/person2.jpg'><img class=product src='images/products/cake.jpg'><div class=""fixation"">+</div>","null","","","exp","show_product2","6","","","1","","","","","","","","","","",""
"html-keyboard-response","128","375681","0.0-9.0-1.0-6.6","5c519ec789254700019f7934","","","","","","null","<img class=left_person src='images/persons/person2.jpg'><img class=reward src='images/zero_coins.png'><img class=product src='images/products/cake.jpg'>","null","","","exp","show_reward2","6","0","1","1","1","2","0","1","2","0.223149338494514","0.84885873178951","0.371769169772707","0.253935888731449","0.275808294291624","0"
"html-keyboard-response","129","377424","0.0-9.0-1.0-0.7","5c519ec789254700019f7934","","","","","","1578","<img class=left_person src='images/persons/person1.jpg'><img class=right_person src='images/persons/person5.jpg'><div class=""fixation"">+</div>","k","","","exp","choice","7","","","","","","","","","","","","","",""
"html-keyboard-response","130","378191","0.0-9.0-1.0-1.7","5c519ec789254700019f7934","","","","","","null","<img class=right_person src='images/persons/person5.jpg'><div class=""fixation"">+</div>","null","","","exp","show_choice","7","1","4","","","","","","","","","","","",""
"html-keyboard-response","131","378943","0.0-9.0-1.0-2.7","5c519ec789254700019f7934","","","","","","null","<img class=right_person src='images/persons/person5.jpg'><img class=product src='images/products/bicycle.jpg'><div class=""fixation"">+</div>","null","","","exp","show_product1","7","","","0","","","","","","","","","","",""
"html-keyboard-response","132","379959","0.0-9.0-1.0-3.7","5c519ec789254700019f7934","","","","","","null","<img class=right_person src='images/persons/person5.jpg'><img class=reward src='images/zero_coins.png'><img class=product src='images/products/bicycle.jpg'>","null","","","exp","show_reward1","7","","","0","0","","","","","","","","","",""
"html-keyboard-response","133","380726","0.0-9.0-1.0-4.7","5c519ec789254700019f7934","","","","","","null","<img class=right_person src='images/persons/person5.jpg'><div class=""fixation"">+</div>","null","","","exp","show_choice","7","1","4","","","","","","","","","","","",""
"html-keyboard-response","134","381490","0.0-9.0-1.0-5.7","5c519ec789254700019f7934","","","","","","null","<img class=right_person src='images/persons/person5.jpg'><img class=product src='images/products/printer.jpg'><div class=""fixation"">+</div>","null","","","exp","show_product2","7","","","0","","","","","","","","","","",""
"html-keyboard-response","135","382493","0.0-9.0-1.0-6.7","5c519ec789254700019f7934","","","","","","null","<img class=right_person src='images/persons/person5.jpg'><img class=reward src='images/zero_coins.png'><img class=product src='images/products/printer.jpg'>","null","","","exp","show_reward2","7","1","4","0","0","4","0","0","4","0.245022227773897","0.830436522745017","0.371993541432001","0.214409674510406","0.243224610157488","0"
"html-keyboard-response","136","384185","0.0-9.0-1.0-0.8","5c519ec789254700019f7934","","","","","","1539","<img class=left_person src='images/persons/person3.jpg'><img class=right_person src='images/persons/person2.jpg'><div class=""fixation"">+</div>","k","","","exp","choice","8","","","","","","","","","","","","","",""
"html-keyboard-response","137","384944","0.0-9.0-1.0-1.8","5c519ec789254700019f7934","","","","","","null","<img class=right_person src='images/persons/person2.jpg'><div class=""fixation"">+</div>","null","","","exp","show_choice","8","1","1","","","","","","","","","","","",""
"html-keyboard-response","138","385708","0.0-9.0-1.0-2.8","5c519ec789254700019f7934","","","","","","null","<img class=right_person src='images/persons/person2.jpg'><img class=product src='images/products/cake.jpg'><div class=""fixation"">+</div>","null","","","exp","show_product1","8","","","2","","","","","","","","","","",""
"html-keyboard-response","139","386711","0.0-9.0-1.0-3.8","5c519ec789254700019f7934","","","","","","null","<img class=right_person src='images/persons/person2.jpg'><img class=reward src='images/zero_coins.png'><img class=product src='images/products/cake.jpg'>","null","","","exp","show_reward1","8","","","2","0","","","","","","","","","",""
"html-keyboard-response","140","387474","0.0-9.0-1.0-4.8","5c519ec789254700019f7934","","","","","","null","<img class=right_person src='images/persons/person2.jpg'><div class=""fixation"">+</div>","null","","","exp","show_choice","8","1","1","","","","","","","","","","","",""
"html-keyboard-response","141","388226","0.0-9.0-1.0-5.8","5c519ec789254700019f7934","","","","","","null","<img class=right_person src='images/persons/person2.jpg'><img class=product src='images/products/book.jpg'><div class=""fixation"">+</div>","null","","","exp","show_product2","8","","","2","","","","","","","","","","",""
"html-keyboard-response","142","389242","0.0-9.0-1.0-6.8","5c519ec789254700019f7934","","","","","","null","<img class=right_person src='images/persons/person2.jpg'><img class=reward src='images/one_coin.png'><img class=product src='images/products/book.jpg'>","null","","","exp","show_reward2","8","1","1","2","0","1","1","2","1","0.302539254497075","0.818952403273637","0.365493297937961","0.272517986272295","0.234966176998085","0"
"html-keyboard-response","143","390881","0.0-9.0-1.0-0.9","5c519ec789254700019f7934","","","","","","1485","<img class=left_person src='images/persons/person3.jpg'><img class=right_person src='images/persons/person4.jpg'><div class=""fixation"">+</div>","s","","","exp","choice","9","","","","","","","","","","","","","",""
"html-keyboard-response","144","391645","0.0-9.0-1.0-1.9","5c519ec789254700019f7934","","","","","","null","<img class=left_person src='images/persons/person3.jpg'><div class=""fixation"">+</div>","null","","","exp","show_choice","9","0","2","","","","","","","","","","","",""
"html-keyboard-response","145","392409","0.0-9.0-1.0-2.9","5c519ec789254700019f7934","","","","","","null","<img class=left_person src='images/persons/person3.jpg'><img class=product src='images/products/cake.jpg'><div class=""fixation"">+</div>","null","","","exp","show_product1","9","","","2","","","","","","","","","","",""
"html-keyboard-response","146","393426","0.0-9.0-1.0-3.9","5c519ec789254700019f7934","","","","","","null","<img class=left_person src='images/persons/person3.jpg'><img class=reward src='images/one_coin.png'><img class=product src='images/products/cake.jpg'>","null","","","exp","show_reward1","9","","","2","1","","","","","","","","","",""
"html-keyboard-response","147","394190","0.0-9.0-1.0-4.9","5c519ec789254700019f7934","","","","","","null","<img class=left_person src='images/persons/person3.jpg'><div class=""fixation"">+</div>","null","","","exp","show_choice","9","0","2","","","","","","","","","","","",""
"html-keyboard-response","148","394957","0.0-9.0-1.0-5.9","5c519ec789254700019f7934","","","","","","null","<img class=left_person src='images/persons/person3.jpg'><img class=product src='images/products/necklace.jpg'><div class=""fixation"">+</div>","null","","","exp","show_product2","9","","","2","","","","","","","","","","",""
"html-keyboard-response","149","395962","0.0-9.0-1.0-6.9","5c519ec789254700019f7934","","","","","","null","<img class=left_person src='images/persons/person3.jpg'><img class=reward src='images/zero_coins.png'><img class=product src='images/products/necklace.jpg'>","null","","","exp","show_reward2","9","0","2","2","1","3","0","2","3","0.334137363915563","0.85","0.370530282572065","0.282808647943239","0.207505740975236","0"
"html-keyboard-response","150","397823","0.0-9.0-1.0-0.10","5c519ec789254700019f7934","","","","","","1695","<img class=left_person src='images/persons/person2.jpg'><img class=right_person src='images/persons/person1.jpg'><div class=""fixation"">+</div>","k","","","exp","choice","10","","","","","","","","","","","","","",""
"html-keyboard-response","151","398581","0.0-9.0-1.0-1.10","5c519ec789254700019f7934","","","","","","null","<img class=right_person src='images/persons/person1.jpg'><div class=""fixation"">+</div>","null","","","exp","show_choice","10","1","0","","","","","","","","","","","",""
"html-keyboard-response","152","399341","0.0-9.0-1.0-2.10","5c519ec789254700019f7934","","","","","","null","<img class=right_person src='images/persons/person1.jpg'><img class=product src='images/products/book.jpg'><div class=""fixation"">+</div>","null","","","exp","show_product1","10","","","1","","","","","","","","","","",""
"html-keyboard-response","153","400347","0.0-9.0-1.0-3.10","5c519ec789254700019f7934","","","","","","null","<img class=right_person src='images/persons/person1.jpg'><img class=reward src='images/one_coin.png'><img class=product src='images/products/book.jpg'>","null","","","exp","show_reward1","10","","","1","1","","","","","","","","","",""
"html-keyboard-response","154","401110","0.0-9.0-1.0-4.10","5c519ec789254700019f7934","","","","","","null","<img class=right_person src='images/persons/person1.jpg'><div class=""fixation"">+</div>","null","","","exp","show_choice","10","1","0","","","","","","","","","","","",""
"html-keyboard-response","155","401862","0.0-9.0-1.0-5.10","5c519ec789254700019f7934","","","","","","null","<img class=right_person src='images/persons/person1.jpg'><img class=product src='images/products/bicycle.jpg'><div class=""fixation"">+</div>","null","","","exp","show_product2","10","","","1","","","","","","","","","","",""
"html-keyboard-response","156","402869","0.0-9.0-1.0-6.10","5c519ec789254700019f7934","","","","","","null","<img class=right_person src='images/persons/person1.jpg'><img class=reward src='images/zero_coins.png'><img class=product src='images/products/bicycle.jpg'>","null","","","exp","show_reward2","10","1","0","1","1","0","0","1","0","0.344057608363764","0.85","0.376167084022124","0.260837058332753","0.163428158918966","0"
"html-keyboard-response","157","404372","0.0-9.0-1.0-0.11","5c519ec789254700019f7934","","","","","","1340","<img class=left_person src='images/persons/person3.jpg'><img class=right_person src='images/persons/person2.jpg'><div class=""fixation"">+</div>","k","","","exp","choice","11","","","","","","","","","","","","","",""
"html-keyboard-response","158","405131","0.0-9.0-1.0-1.11","5c519ec789254700019f7934","","","","","","null","<img class=right_person src='images/persons/person2.jpg'><div class=""fixation"">+</div>","null","","","exp","show_choice","11","1","1","","","","","","","","","","","",""
"html-keyboard-response","159","405894","0.0-9.0-1.0-2.11","5c519ec789254700019f7934","","","","","","null","<img class=right_person src='images/persons/person2.jpg'><img class=product src='images/products/cake.jpg'><div class=""fixation"">+</div>","null","","","exp","show_product1","11","","","2","","","","","","","","","","",""
"html-keyboard-response","160","406910","0.0-9.0-1.0-3.11","5c519ec789254700019f7934","","","","","","null","<img class=right_person src='images/persons/person2.jpg'><img class=reward src='images/one_coin.png'><img class=product src='images/products/cake.jpg'>","null","","","exp","show_reward1","11","","","2","1","","","","","","","","","",""
"html-keyboard-response","161","407674","0.0-9.0-1.0-4.11","5c519ec789254700019f7934","","","","","","null","<img class=right_person src='images/persons/person2.jpg'><div class=""fixation"">+</div>","null","","","exp","show_choice","11","1","1","","","","","","","","","","","",""
"html-keyboard-response","162","408441","0.0-9.0-1.0-5.11","5c519ec789254700019f7934","","","","","","null","<img class=right_person src='images/persons/person2.jpg'><img class=product src='images/products/book.jpg'><div class=""fixation"">+</div>","null","","","exp","show_product2","11","","","2","","","","","","","","","","",""
"html-keyboard-response","163","409458","0.0-9.0-1.0-6.11","5c519ec789254700019f7934","","","","","","null","<img class=right_person src='images/persons/person2.jpg'><img class=reward src='images/one_coin.png'><img class=product src='images/products/book.jpg'>","null","","","exp","show_reward2","11","1","1","2","1","1","1","2","1","0.318197204346714","0.835421718663637","0.408405507855242","0.282233246431526","0.15","0"
"html-keyboard-response","164","410428","0.0-9.0-1.0-0.12","5c519ec789254700019f7934","","","","","","815","<img class=left_person src='images/persons/person5.jpg'><img class=right_person src='images/persons/person1.jpg'><div class=""fixation"">+</div>","k","","","exp","choice","12","","","","","","","","","","","","","",""
"html-keyboard-response","165","411192","0.0-9.0-1.0-1.12","5c519ec789254700019f7934","","","","","","null","<img class=right_person src='images/persons/person1.jpg'><div class=""fixation"">+</div>","null","","","exp","show_choice","12","1","0","","","","","","","","","","","",""
"html-keyboard-response","166","411957","0.0-9.0-1.0-2.12","5c519ec789254700019f7934","","","","","","null","<img class=right_person src='images/persons/person1.jpg'><img class=product src='images/products/book.jpg'><div class=""fixation"">+</div>","null","","","exp","show_product1","12","","","1","","","","","","","","","","",""
"html-keyboard-response","167","412961","0.0-9.0-1.0-3.12","5c519ec789254700019f7934","","","","","","null","<img class=right_person src='images/persons/person1.jpg'><img class=reward src='images/one_coin.png'><img class=product src='images/products/book.jpg'>","null","","","exp","show_reward1","12","","","1","1","","","","","","","","","",""
"html-keyboard-response","168","413713","0.0-9.0-1.0-4.12","5c519ec789254700019f7934","","","","","","null","<img class=right_person src='images/persons/person1.jpg'><div class=""fixation"">+</div>","null","","","exp","show_choice","12","1","0","","","","","","","","","","","",""
"html-keyboard-response","169","414474","0.0-9.0-1.0-5.12","5c519ec789254700019f7934","","","","","","null","<img class=right_person src='images/persons/person1.jpg'><img class=product src='images/products/bicycle.jpg'><div class=""fixation"">+</div>","null","","","exp","show_product2","12","","","1","","","","","","","","","","",""
"html-keyboard-response","170","415476","0.0-9.0-1.0-6.12","5c519ec789254700019f7934","","","","","","null","<img class=right_person src='images/persons/person1.jpg'><img class=reward src='images/one_coin.png'><img class=product src='images/products/bicycle.jpg'>","null","","","exp","show_reward2","12","1","0","1","1","0","1","4","0","0.340816589652993","0.844611768677533","0.424850037529314","0.284449162126977","0.15","0"
"html-keyboard-response","171","416687","0.0-9.0-1.0-0.13","5c519ec789254700019f7934","","","","","","1058","<img class=left_person src='images/persons/person3.jpg'><img class=right_person src='images/persons/person2.jpg'><div class=""fixation"">+</div>","k","","","exp","choice","13","","","","","","","","","","","","","",""
"html-keyboard-response","172","417441","0.0-9.0-1.0-1.13","5c519ec789254700019f7934","","","","","","null","<img class=right_person src='images/persons/person2.jpg'><div class=""fixation"">+</div>","null","","","exp","show_choice","13","1","1","","","","","","","","","","","",""
"html-keyboard-response","173","418194","0.0-9.0-1.0-2.13","5c519ec789254700019f7934","","","","","","null","<img class=right_person src='images/persons/person2.jpg'><img class=product src='images/products/cake.jpg'><div class=""fixation"">+</div>","null","","","exp","show_product1","13","","","2","","","","","","","","","","",""
"html-keyboard-response","174","419206","0.0-9.0-1.0-3.13","5c519ec789254700019f7934","","","","","","null","<img class=right_person src='images/persons/person2.jpg'><img class=reward src='images/zero_coins.png'><img class=product src='images/products/cake.jpg'>","null","","","exp","show_reward1","13","","","2","0","","","","","","","","","",""
"html-keyboard-response","175","419958","0.0-9.0-1.0-4.13","5c519ec789254700019f7934","","","","","","null","<img class=right_person src='images/persons/person2.jpg'><div class=""fixation"">+</div>","null","","","exp","show_choice","13","1","1","","","","","","","","","","","",""
"html-keyboard-response","176","420712","0.0-9.0-1.0-5.13","5c519ec789254700019f7934","","","","","","null","<img class=right_person src='images/persons/person2.jpg'><img class=product src='images/products/book.jpg'><div class=""fixation"">+</div>","null","","","exp","show_product2","13","","","2","","","","","","","","","","",""
"html-keyboard-response","177","421713","0.0-9.0-1.0-6.13","5c519ec789254700019f7934","","","","","","null","<img class=right_person src='images/persons/person2.jpg'><img class=reward src='images/one_coin.png'><img class=product src='images/products/book.jpg'>","null","","","exp","show_reward2","13","1","1","2","0","1","1","2","1","0.351742037715428","0.84834346184689","0.421528161074109","0.244676057939866","0.15","0"
"html-keyboard-response","178","423733","0.0-9.0-1.0-0.14","5c519ec789254700019f7934","","","","","","1854","<img class=left_person src='images/persons/person5.jpg'><img class=right_person src='images/persons/person4.jpg'><div class=""fixation"">+</div>","k","","","exp","choice","14","","","","","","","","","","","","","",""
"html-keyboard-response","179","424492","0.0-9.0-1.0-1.14","5c519ec789254700019f7934","","","","","","null","<img class=right_person src='images/persons/person4.jpg'><div class=""fixation"">+</div>","null","","","exp","show_choice","14","1","3","","","","","","","","","","","",""
"html-keyboard-response","180","425258","0.0-9.0-1.0-2.14","5c519ec789254700019f7934","","","","","","null","<img class=right_person src='images/persons/person4.jpg'><img class=product src='images/products/printer.jpg'><div class=""fixation"">+</div>","null","","","exp","show_product1","14","","","4","","","","","","","","","","",""
"html-keyboard-response","181","426274","0.0-9.0-1.0-3.14","5c519ec789254700019f7934","","","","","","null","<img class=right_person src='images/persons/person4.jpg'><img class=reward src='images/zero_coins.png'><img class=product src='images/products/printer.jpg'>","null","","","exp","show_reward1","14","","","4","0","","","","","","","","","",""
"html-keyboard-response","182","427040","0.0-9.0-1.0-4.14","5c519ec789254700019f7934","","","","","","null","<img class=right_person src='images/persons/person4.jpg'><div class=""fixation"">+</div>","null","","","exp","show_choice","14","1","3","","","","","","","","","","","",""
"html-keyboard-response","183","427808","0.0-9.0-1.0-5.14","5c519ec789254700019f7934","","","","","","null","<img class=right_person src='images/persons/person4.jpg'><img class=product src='images/products/necklace.jpg'><div class=""fixation"">+</div>","null","","","exp","show_product2","14","","","4","","","","","","","","","","",""
"html-keyboard-response","184","428812","0.0-9.0-1.0-6.14","5c519ec789254700019f7934","","","","","","null","<img class=right_person src='images/persons/person4.jpg'><img class=reward src='images/zero_coins.png'><img class=product src='images/products/necklace.jpg'>","null","","","exp","show_reward2","14","1","3","4","0","3","0","4","3","0.316330458048535","0.847039692979381","0.460545280722732","0.24742040169269","0.15","0"
"html-keyboard-response","185","431370","0.0-9.0-1.0-0.15","5c519ec789254700019f7934","","","","","","2391","<img class=left_person src='images/persons/person3.jpg'><img class=right_person src='images/persons/person2.jpg'><div class=""fixation"">+</div>","k","","","exp","choice","15","","","","","","","","","","","","","",""
"html-keyboard-response","186","432125","0.0-9.0-1.0-1.15","5c519ec789254700019f7934","","","","","","null","<img class=right_person src='images/persons/person2.jpg'><div class=""fixation"">+</div>","null","","","exp","show_choice","15","1","1","","","","","","","","","","","",""
"html-keyboard-response","187","432891","0.0-9.0-1.0-2.15","5c519ec789254700019f7934","","","","","","null","<img class=right_person src='images/persons/person2.jpg'><img class=product src='images/products/book.jpg'><div class=""fixation"">+</div>","null","","","exp","show_product1","15","","","1","","","","","","","","","","",""
"html-keyboard-response","188","433907","0.0-9.0-1.0-3.15","5c519ec789254700019f7934","","","","","","null","<img class=right_person src='images/persons/person2.jpg'><img class=reward src='images/one_coin.png'><img class=product src='images/products/book.jpg'>","null","","","exp","show_reward1","15","","","1","1","","","","","","","","","",""
"html-keyboard-response","189","434660","0.0-9.0-1.0-4.15","5c519ec789254700019f7934","","","","","","null","<img class=right_person src='images/persons/person2.jpg'><div class=""fixation"">+</div>","null","","","exp","show_choice","15","1","1","","","","","","","","","","","",""
"html-keyboard-response","190","435425","0.0-9.0-1.0-5.15","5c519ec789254700019f7934","","","","","","null","<img class=right_person src='images/persons/person2.jpg'><img class=product src='images/products/cake.jpg'><div class=""fixation"">+</div>","null","","","exp","show_product2","15","","","1","","","","","","","","","","",""
"html-keyboard-response","191","436442","0.0-9.0-1.0-6.15","5c519ec789254700019f7934","","","","","","null","<img class=right_person src='images/persons/person2.jpg'><img class=reward src='images/zero_coins.png'><img class=product src='images/products/cake.jpg'>","null","","","exp","show_reward2","15","1","1","1","1","2","0","2","1","0.289434255039706","0.815205327895876","0.455296390833561","0.292889081673277","0.15","0"
"html-keyboard-response","192","438662","0.0-9.0-1.0-0.16","5c519ec789254700019f7934","","","","","","2066","<img class=left_person src='images/persons/person4.jpg'><img class=right_person src='images/persons/person3.jpg'><div class=""fixation"">+</div>","k","","","exp","choice","16","","","","","","","","","","","","","",""
"html-keyboard-response","193","439428","0.0-9.0-1.0-1.16","5c519ec789254700019f7934","","","","","","null","<img class=right_person src='images/persons/person3.jpg'><div class=""fixation"">+</div>","null","","","exp","show_choice","16","1","2","","","","","","","","","","","",""
"html-keyboard-response","194","440180","0.0-9.0-1.0-2.16","5c519ec789254700019f7934","","","","","","null","<img class=right_person src='images/persons/person3.jpg'><img class=product src='images/products/cake.jpg'><div class=""fixation"">+</div>","null","","","exp","show_product1","16","","","2","","","","","","","","","","",""
"html-keyboard-response","195","441191","0.0-9.0-1.0-3.16","5c519ec789254700019f7934","","","","","","null","<img class=right_person src='images/persons/person3.jpg'><img class=reward src='images/zero_coins.png'><img class=product src='images/products/cake.jpg'>","null","","","exp","show_reward1","16","","","2","0","","","","","","","","","",""
"html-keyboard-response","196","441942","0.0-9.0-1.0-4.16","5c519ec789254700019f7934","","","","","","null","<img class=right_person src='images/persons/person3.jpg'><div class=""fixation"">+</div>","null","","","exp","show_choice","16","1","2","","","","","","","","","","","",""
"html-keyboard-response","197","442708","0.0-9.0-1.0-5.16","5c519ec789254700019f7934","","","","","","null","<img class=right_person src='images/persons/person3.jpg'><img class=product src='images/products/necklace.jpg'><div class=""fixation"">+</div>","null","","","exp","show_product2","16","","","2","","","","","","","","","","",""
"html-keyboard-response","198","443714","0.0-9.0-1.0-6.16","5c519ec789254700019f7934","","","","","","null","<img class=right_person src='images/persons/person3.jpg'><img class=reward src='images/zero_coins.png'><img class=product src='images/products/necklace.jpg'>","null","","","exp","show_reward2","16","1","2","2","0","3","0","3","2","0.325173420638148","0.786962427597247","0.475147781692021","0.30783473455715","0.215884665165148","0"
"html-keyboard-response","199","445103","0.0-9.0-1.0-0.17","5c519ec789254700019f7934","","","","","","1224","<img class=left_person src='images/persons/person5.jpg'><img class=right_person src='images/persons/person1.jpg'><div class=""fixation"">+</div>","k","","","exp","choice","17","","","","","","","","","","","","","",""
"html-keyboard-response","200","445861","0.0-9.0-1.0-1.17","5c519ec789254700019f7934","","","","","","null","<img class=right_person src='images/persons/person1.jpg'><div class=""fixation"">+</div>","null","","","exp","show_choice","17","1","0","","","","","","","","","","","",""
"html-keyboard-response","201","446626","0.0-9.0-1.0-2.17","5c519ec789254700019f7934","","","","","","null","<img class=right_person src='images/persons/person1.jpg'><img class=product src='images/products/bicycle.jpg'><div class=""fixation"">+</div>","null","","","exp","show_product1","17","","","0","","","","","","","","","","",""
"html-keyboard-response","202","447630","0.0-9.0-1.0-3.17","5c519ec789254700019f7934","","","","","","null","<img class=right_person src='images/persons/person1.jpg'><img class=reward src='images/zero_coins.png'><img class=product src='images/products/bicycle.jpg'>","null","","","exp","show_reward1","17","","","0","0","","","","","","","","","",""
"html-keyboard-response","203","448397","0.0-9.0-1.0-4.17","5c519ec789254700019f7934","","","","","","null","<img class=right_person src='images/persons/person1.jpg'><div class=""fixation"">+</div>","null","","","exp","show_choice","17","1","0","","","","","","","","","","","",""
"html-keyboard-response","204","449160","0.0-9.0-1.0-5.17","5c519ec789254700019f7934","","","","","","null","<img class=right_person src='images/persons/person1.jpg'><img class=product src='images/products/book.jpg'><div class=""fixation"">+</div>","null","","","exp","show_product2","17","","","0","","","","","","","","","","",""
"html-keyboard-response","205","450164","0.0-9.0-1.0-6.17","5c519ec789254700019f7934","","","","","","null","<img class=right_person src='images/persons/person1.jpg'><img class=reward src='images/one_coin.png'><img class=product src='images/products/book.jpg'>","null","","","exp","show_reward2","17","1","0","0","0","1","1","4","0","0.277012376133618","0.800140842281835","0.416525736235663","0.3255685682564","0.15","0"
"html-keyboard-response","206","451363","0.0-9.0-1.0-0.18","5c519ec789254700019f7934","","","","","","1034","<img class=left_person src='images/persons/person1.jpg'><img class=right_person src='images/persons/person5.jpg'><div class=""fixation"">+</div>","k","","","exp","choice","18","","","","","","","","","","","","","",""
"html-keyboard-response","207","452126","0.0-9.0-1.0-1.18","5c519ec789254700019f7934","","","","","","null","<img class=right_person src='images/persons/person5.jpg'><div class=""fixation"">+</div>","null","","","exp","show_choice","18","1","4","","","","","","","","","","","",""
"html-keyboard-response","208","452891","0.0-9.0-1.0-2.18","5c519ec789254700019f7934","","","","","","null","<img class=right_person src='images/persons/person5.jpg'><img class=product src='images/products/bicycle.jpg'><div class=""fixation"">+</div>","null","","","exp","show_product1","18","","","0","","","","","","","","","","",""
"html-keyboard-response","209","453895","0.0-9.0-1.0-3.18","5c519ec789254700019f7934","","","","","","null","<img class=right_person src='images/persons/person5.jpg'><img class=reward src='images/zero_coins.png'><img class=product src='images/products/bicycle.jpg'>","null","","","exp","show_reward1","18","","","0","0","","","","","","","","","",""
"html-keyboard-response","210","454659","0.0-9.0-1.0-4.18","5c519ec789254700019f7934","","","","","","null","<img class=right_person src='images/persons/person5.jpg'><div class=""fixation"">+</div>","null","","","exp","show_choice","18","1","4","","","","","","","","","","","",""
"html-keyboard-response","211","455425","0.0-9.0-1.0-5.18","5c519ec789254700019f7934","","","","","","null","<img class=right_person src='images/persons/person5.jpg'><img class=product src='images/products/printer.jpg'><div class=""fixation"">+</div>","null","","","exp","show_product2","18","","","0","","","","","","","","","","",""
"html-keyboard-response","212","456427","0.0-9.0-1.0-6.18","5c519ec789254700019f7934","","","","","","null","<img class=right_person src='images/persons/person5.jpg'><img class=reward src='images/zero_coins.png'><img class=product src='images/products/printer.jpg'>","null","","","exp","show_reward2","18","1","4","0","0","4","0","0","4","0.267092483408783","0.810146467798569","0.401569924522585","0.298693240777537","0.150911955299929","0"
"html-keyboard-response","213","458135","0.0-9.0-1.0-0.19","5c519ec789254700019f7934","","","","","","1541","<img class=left_person src='images/persons/person4.jpg'><img class=right_person src='images/persons/person5.jpg'><div class=""fixation"">+</div>","s","","","exp","choice","19","","","","","","","","","","","","","",""
"html-keyboard-response","214","458892","0.0-9.0-1.0-1.19","5c519ec789254700019f7934","","","","","","null","<img class=left_person src='images/persons/person4.jpg'><div class=""fixation"">+</div>","null","","","exp","show_choice","19","0","3","","","","","","","","","","","",""
"html-keyboard-response","215","459658","0.0-9.0-1.0-2.19","5c519ec789254700019f7934","","","","","","null","<img class=left_person src='images/persons/person4.jpg'><img class=product src='images/products/printer.jpg'><div class=""fixation"">+</div>","null","","","exp","show_product1","19","","","4","","","","","","","","","","",""
"html-keyboard-response","216","460661","0.0-9.0-1.0-3.19","5c519ec789254700019f7934","","","","","","null","<img class=left_person src='images/persons/person4.jpg'><img class=reward src='images/zero_coins.png'><img class=product src='images/products/printer.jpg'>","null","","","exp","show_reward1","19","","","4","0","","","","","","","","","",""
"html-keyboard-response","217","461426","0.0-9.0-1.0-4.19","5c519ec789254700019f7934","","","","","","null","<img class=left_person src='images/persons/person4.jpg'><div class=""fixation"">+</div>","null","","","exp","show_choice","19","0","3","","","","","","","","","","","",""
"html-keyboard-response","218","462191","0.0-9.0-1.0-5.19","5c519ec789254700019f7934","","","","","","null","<img class=left_person src='images/persons/person4.jpg'><img class=product src='images/products/necklace.jpg'><div class=""fixation"">+</div>","null","","","exp","show_product2","19","","","4","","","","","","","","","","",""
"html-keyboard-response","219","463196","0.0-9.0-1.0-6.19","5c519ec789254700019f7934","","","","","","null","<img class=left_person src='images/persons/person4.jpg'><img class=reward src='images/one_coin.png'><img class=product src='images/products/necklace.jpg'>","null","","","exp","show_reward2","19","0","3","4","0","3","1","3","4","0.24157766891671","0.828680944090513","0.378325479463357","0.316710409320766","0.15","0"
"html-keyboard-response","220","464218","0.0-9.0-1.0-0.20","5c519ec789254700019f7934","","","","","","869","<img class=left_person src='images/persons/person5.jpg'><img class=right_person src='images/persons/person4.jpg'><div class=""fixation"">+</div>","k","","","exp","choice","20","","","","","","","","","","","","","",""
"html-keyboard-response","221","464980","0.0-9.0-1.0-1.20","5c519ec789254700019f7934","","","","","","null","<img class=right_person src='images/persons/person4.jpg'><div class=""fixation"">+</div>","null","","","exp","show_choice","20","1","3","","","","","","","","","","","",""
"html-keyboard-response","222","465744","0.0-9.0-1.0-2.20","5c519ec789254700019f7934","","","","","","null","<img class=right_person src='images/persons/person4.jpg'><img class=product src='images/products/necklace.jpg'><div class=""fixation"">+</div>","null","","","exp","show_product1","20","","","3","","","","","","","","","","",""
"html-keyboard-response","223","466759","0.0-9.0-1.0-3.20","5c519ec789254700019f7934","","","","","","null","<img class=right_person src='images/persons/person4.jpg'><img class=reward src='images/one_coin.png'><img class=product src='images/products/necklace.jpg'>","null","","","exp","show_reward1","20","","","3","1","","","","","","","","","",""
"html-keyboard-response","224","467526","0.0-9.0-1.0-4.20","5c519ec789254700019f7934","","","","","","null","<img class=right_person src='images/persons/person4.jpg'><div class=""fixation"">+</div>","null","","","exp","show_choice","20","1","3","","","","","","","","","","","",""
"html-keyboard-response","225","468280","0.0-9.0-1.0-5.20","5c519ec789254700019f7934","","","","","","null","<img class=right_person src='images/persons/person4.jpg'><img class=product src='images/products/printer.jpg'><div class=""fixation"">+</div>","null","","","exp","show_product2","20","","","3","","","","","","","","","","",""
"html-keyboard-response","226","469295","0.0-9.0-1.0-6.20","5c519ec789254700019f7934","","","","","","null","<img class=right_person src='images/persons/person4.jpg'><img class=reward src='images/one_coin.png'><img class=product src='images/products/printer.jpg'>","null","","","exp","show_reward2","20","1","3","3","1","4","1","4","3","0.24714271065827","0.796957569007589","0.401910564029195","0.295710642883366","0.164862580572664","0"
"html-keyboard-response","227","471260","0.0-9.0-1.0-0.21","5c519ec789254700019f7934","","","","","","1813","<img class=left_person src='images/persons/person3.jpg'><img class=right_person src='images/persons/person2.jpg'><div class=""fixation"">+</div>","s","","","exp","choice","21","","","","","","","","","","","","","",""
"html-keyboard-response","228","472012","0.0-9.0-1.0-1.21","5c519ec789254700019f7934","","","","","","null","<img class=left_person src='images/persons/person3.jpg'><div class=""fixation"">+</div>","null","","","exp","show_choice","21","0","2","","","","","","","","","","","",""
"html-keyboard-response","229","472777","0.0-9.0-1.0-2.21","5c519ec789254700019f7934","","","","","","null","<img class=left_person src='images/persons/person3.jpg'><img class=product src='images/products/cake.jpg'><div class=""fixation"">+</div>","null","","","exp","show_product1","21","","","2","","","","","","","","","","",""
"html-keyboard-response","230","473794","0.0-9.0-1.0-3.21","5c519ec789254700019f7934","","","","","","null","<img class=left_person src='images/persons/person3.jpg'><img class=reward src='images/zero_coins.png'><img class=product src='images/products/cake.jpg'>","null","","","exp","show_reward1","21","","","2","0","","","","","","","","","",""
"html-keyboard-response","231","474558","0.0-9.0-1.0-4.21","5c519ec789254700019f7934","","","","","","null","<img class=left_person src='images/persons/person3.jpg'><div class=""fixation"">+</div>","null","","","exp","show_choice","21","0","2","","","","","","","","","","","",""
"html-keyboard-response","232","475309","0.0-9.0-1.0-5.21","5c519ec789254700019f7934","","","","","","null","<img class=left_person src='images/persons/person3.jpg'><img class=product src='images/products/necklace.jpg'><div class=""fixation"">+</div>","null","","","exp","show_product2","21","","","2","","","","","","","","","","",""
"html-keyboard-response","233","476325","0.0-9.0-1.0-6.21","5c519ec789254700019f7934","","","","","","null","<img class=left_person src='images/persons/person3.jpg'><img class=reward src='images/zero_coins.png'><img class=product src='images/products/necklace.jpg'>","null","","","exp","show_reward2","21","0","2","2","0","3","0","2","1","0.249869553866331","0.778958858495414","0.345718414170977","0.285702448610508","0.153200536930631","0"
"html-keyboard-response","234","477747","0.0-9.0-1.0-0.22","5c519ec789254700019f7934","","","","","","1269","<img class=left_person src='images/persons/person1.jpg'><img class=right_person src='images/persons/person5.jpg'><div class=""fixation"">+</div>","s","","","exp","choice","22","","","","","","","","","","","","","",""
"html-keyboard-response","235","478509","0.0-9.0-1.0-1.22","5c519ec789254700019f7934","","","","","","null","<img class=left_person src='images/persons/person1.jpg'><div class=""fixation"">+</div>","null","","","exp","show_choice","22","0","0","","","","","","","","","","","",""
"html-keyboard-response","236","479274","0.0-9.0-1.0-2.22","5c519ec789254700019f7934","","","","","","null","<img class=left_person src='images/persons/person1.jpg'><img class=product src='images/products/bicycle.jpg'><div class=""fixation"">+</div>","null","","","exp","show_product1","22","","","0","","","","","","","","","","",""
"html-keyboard-response","237","480280","0.0-9.0-1.0-3.22","5c519ec789254700019f7934","","","","","","null","<img class=left_person src='images/persons/person1.jpg'><img class=reward src='images/zero_coins.png'><img class=product src='images/products/bicycle.jpg'>","null","","","exp","show_reward1","22","","","0","0","","","","","","","","","",""
"html-keyboard-response","238","481041","0.0-9.0-1.0-4.22","5c519ec789254700019f7934","","","","","","null","<img class=left_person src='images/persons/person1.jpg'><div class=""fixation"">+</div>","null","","","exp","show_choice","22","0","0","","","","","","","","","","","",""
"html-keyboard-response","239","481793","0.0-9.0-1.0-5.22","5c519ec789254700019f7934","","","","","","null","<img class=left_person src='images/persons/person1.jpg'><img class=product src='images/products/book.jpg'><div class=""fixation"">+</div>","null","","","exp","show_product2","22","","","0","","","","","","","","","","",""
"html-keyboard-response","240","482809","0.0-9.0-1.0-6.22","5c519ec789254700019f7934","","","","","","null","<img class=left_person src='images/persons/person1.jpg'><img class=reward src='images/one_coin.png'><img class=product src='images/products/book.jpg'>","null","","","exp","show_reward2","22","0","0","0","0","1","1","0","4","0.244860947247307","0.816391955285859","0.317876912283693","0.286538786002641","0.177450604231071","0"
"html-keyboard-response","241","484491","0.0-9.0-1.0-0.23","5c519ec789254700019f7934","","","","","","1532","<img class=left_person src='images/persons/person2.jpg'><img class=right_person src='images/persons/person1.jpg'><div class=""fixation"">+</div>","k","","","exp","choice","23","","","","","","","","","","","","","",""
"html-keyboard-response","242","485256","0.0-9.0-1.0-1.23","5c519ec789254700019f7934","","","","","","null","<img class=right_person src='images/persons/person1.jpg'><div class=""fixation"">+</div>","null","","","exp","show_choice","23","1","0","","","","","","","","","","","",""
"html-keyboard-response","243","486022","0.0-9.0-1.0-2.23","5c519ec789254700019f7934","","","","","","null","<img class=right_person src='images/persons/person1.jpg'><img class=product src='images/products/book.jpg'><div class=""fixation"">+</div>","null","","","exp","show_product1","23","","","1","","","","","","","","","","",""
"html-keyboard-response","244","487040","0.0-9.0-1.0-3.23","5c519ec789254700019f7934","","","","","","null","<img class=right_person src='images/persons/person1.jpg'><img class=reward src='images/one_coin.png'><img class=product src='images/products/book.jpg'>","null","","","exp","show_reward1","23","","","1","1","","","","","","","","","",""
"html-keyboard-response","245","487806","0.0-9.0-1.0-4.23","5c519ec789254700019f7934","","","","","","null","<img class=right_person src='images/persons/person1.jpg'><div class=""fixation"">+</div>","null","","","exp","show_choice","23","1","0","","","","","","","","","","","",""
"html-keyboard-response","246","488560","0.0-9.0-1.0-5.23","5c519ec789254700019f7934","","","","","","null","<img class=right_person src='images/persons/person1.jpg'><img class=product src='images/products/bicycle.jpg'><div class=""fixation"">+</div>","null","","","exp","show_product2","23","","","1","","","","","","","","","","",""
"html-keyboard-response","247","489577","0.0-9.0-1.0-6.23","5c519ec789254700019f7934","","","","","","null","<img class=right_person src='images/persons/person1.jpg'><img class=reward src='images/zero_coins.png'><img class=product src='images/products/bicycle.jpg'>","null","","","exp","show_reward2","23","1","0","1","1","0","0","1","0","0.195542686694281","0.805165559867479","0.314159746506156","0.279675425369382","0.188059704249955","0"
"html-keyboard-response","248","490668","0.0-9.0-1.0-0.24","5c519ec789254700019f7934","","","","","","926","<img class=left_person src='images/persons/person5.jpg'><img class=right_person src='images/persons/person1.jpg'><div class=""fixation"">+</div>","s","","","exp","choice","24","","","","","","","","","","","","","",""
"html-keyboard-response","249","491423","0.0-9.0-1.0-1.24","5c519ec789254700019f7934","","","","","","null","<img class=left_person src='images/persons/person5.jpg'><div class=""fixation"">+</div>","null","","","exp","show_choice","24","0","4","","","","","","","","","","","",""
"html-keyboard-response","250","492188","0.0-9.0-1.0-2.24","5c519ec789254700019f7934","","","","","","null","<img class=left_person src='images/persons/person5.jpg'><img class=product src='images/products/printer.jpg'><div class=""fixation"">+</div>","null","","","exp","show_product1","24","","","4","","","","","","","","","","",""
"html-keyboard-response","251","493195","0.0-9.0-1.0-3.24","5c519ec789254700019f7934","","","","","","null","<img class=left_person src='images/persons/person5.jpg'><img class=reward src='images/zero_coins.png'><img class=product src='images/products/printer.jpg'>","null","","","exp","show_reward1","24","","","4","0","","","","","","","","","",""
"html-keyboard-response","252","493954","0.0-9.0-1.0-4.24","5c519ec789254700019f7934","","","","","","null","<img class=left_person src='images/persons/person5.jpg'><div class=""fixation"">+</div>","null","","","exp","show_choice","24","0","4","","","","","","","","","","","",""
"html-keyboard-response","253","494708","0.0-9.0-1.0-5.24","5c519ec789254700019f7934","","","","","","null","<img class=left_person src='images/persons/person5.jpg'><img class=product src='images/products/bicycle.jpg'><div class=""fixation"">+</div>","null","","","exp","show_product2","24","","","4","","","","","","","","","","",""
"html-keyboard-response","254","495725","0.0-9.0-1.0-6.24","5c519ec789254700019f7934","","","","","","null","<img class=left_person src='images/persons/person5.jpg'><img class=reward src='images/zero_coins.png'><img class=product src='images/products/bicycle.jpg'>","null","","","exp","show_reward2","24","0","4","4","0","0","0","4","0","0.207701276452671","0.79911957887982","0.236904490535797","0.301414231645848","0.205300299339789","0"
"html-keyboard-response","255","497143","0.0-9.0-1.0-0.25","5c519ec789254700019f7934","","","","","","1252","<img class=left_person src='images/persons/person2.jpg'><img class=right_person src='images/persons/person3.jpg'><div class=""fixation"">+</div>","k","","","exp","choice","25","","","","","","","","","","","","","",""
"html-keyboard-response","256","497904","0.0-9.0-1.0-1.25","5c519ec789254700019f7934","","","","","","null","<img class=right_person src='images/persons/person3.jpg'><div class=""fixation"">+</div>","null","","","exp","show_choice","25","1","2","","","","","","","","","","","",""
"html-keyboard-response","257","498657","0.0-9.0-1.0-2.25","5c519ec789254700019f7934","","","","","","null","<img class=right_person src='images/persons/person3.jpg'><img class=product src='images/products/necklace.jpg'><div class=""fixation"">+</div>","null","","","exp","show_product1","25","","","3","","","","","","","","","","",""
"html-keyboard-response","258","499659","0.0-9.0-1.0-3.25","5c519ec789254700019f7934","","","","","","null","<img class=right_person src='images/persons/person3.jpg'><img class=reward src='images/zero_coins.png'><img class=product src='images/products/necklace.jpg'>","null","","","exp","show_reward1","25","","","3","0","","","","","","","","","",""
"html-keyboard-response","259","500422","0.0-9.0-1.0-4.25","5c519ec789254700019f7934","","","","","","null","<img class=right_person src='images/persons/person3.jpg'><div class=""fixation"">+</div>","null","","","exp","show_choice","25","1","2","","","","","","","","","","","",""
"html-keyboard-response","260","501187","0.0-9.0-1.0-5.25","5c519ec789254700019f7934","","","","","","null","<img class=right_person src='images/persons/person3.jpg'><img class=product src='images/products/cake.jpg'><div class=""fixation"">+</div>","null","","","exp","show_product2","25","","","3","","","","","","","","","","",""
"html-keyboard-response","261","502191","0.0-9.0-1.0-6.25","5c519ec789254700019f7934","","","","","","null","<img class=right_person src='images/persons/person3.jpg'><img class=reward src='images/zero_coins.png'><img class=product src='images/products/cake.jpg'>","null","","","exp","show_reward2","25","1","2","3","0","2","0","1","2","0.2159864259515","0.818717132865506","0.221402384639541","0.293171180470813","0.249268318918408","0"
"html-keyboard-response","262","503615","0.0-9.0-1.0-0.26","5c519ec789254700019f7934","","","","","","1272","<img class=left_person src='images/persons/person1.jpg'><img class=right_person src='images/persons/person5.jpg'><div class=""fixation"">+</div>","k","","","exp","choice","26","","","","","","","","","","","","","",""
"html-keyboard-response","263","504371","0.0-9.0-1.0-1.26","5c519ec789254700019f7934","","","","","","null","<img class=right_person src='images/persons/person5.jpg'><div class=""fixation"">+</div>","null","","","exp","show_choice","26","1","4","","","","","","","","","","","",""
"html-keyboard-response","264","505137","0.0-9.0-1.0-2.26","5c519ec789254700019f7934","","","","","","null","<img class=right_person src='images/persons/person5.jpg'><img class=product src='images/products/printer.jpg'><div class=""fixation"">+</div>","null","","","exp","show_product1","26","","","4","","","","","","","","","","",""
"html-keyboard-response","265","506139","0.0-9.0-1.0-3.26","5c519ec789254700019f7934","","","","","","null","<img class=right_person src='images/persons/person5.jpg'><img class=reward src='images/zero_coins.png'><img class=product src='images/products/printer.jpg'>","null","","","exp","show_reward1","26","","","4","0","","","","","","","","","",""
"html-keyboard-response","266","506891","0.0-9.0-1.0-4.26","5c519ec789254700019f7934","","","","","","null","<img class=right_person src='images/persons/person5.jpg'><div class=""fixation"">+</div>","null","","","exp","show_choice","26","1","4","","","","","","","","","","","",""
"html-keyboard-response","267","507656","0.0-9.0-1.0-5.26","5c519ec789254700019f7934","","","","","","null","<img class=right_person src='images/persons/person5.jpg'><img class=product src='images/products/bicycle.jpg'><div class=""fixation"">+</div>","null","","","exp","show_product2","26","","","4","","","","","","","","","","",""
"html-keyboard-response","268","508660","0.0-9.0-1.0-6.26","5c519ec789254700019f7934","","","","","","null","<img class=right_person src='images/persons/person5.jpg'><img class=reward src='images/zero_coins.png'><img class=product src='images/products/bicycle.jpg'>","null","","","exp","show_reward2","26","1","4","4","0","0","0","0","4","0.191029451798468","0.782377768010874","0.260786532087955","0.321045982162179","0.274895926167849","0"
"html-keyboard-response","269","509662","0.0-9.0-1.0-0.27","5c519ec789254700019f7934","","","","","","836","<img class=left_person src='images/persons/person5.jpg'><img class=right_person src='images/persons/person1.jpg'><div class=""fixation"">+</div>","k","","","exp","choice","27","","","","","","","","","","","","","",""
"html-keyboard-response","270","510423","0.0-9.0-1.0-1.27","5c519ec789254700019f7934","","","","","","null","<img class=right_person src='images/persons/person1.jpg'><div class=""fixation"">+</div>","null","","","exp","show_choice","27","1","0","","","","","","","","","","","",""
"html-keyboard-response","271","511188","0.0-9.0-1.0-2.27","5c519ec789254700019f7934","","","","","","null","<img class=right_person src='images/persons/person1.jpg'><img class=product src='images/products/book.jpg'><div class=""fixation"">+</div>","null","","","exp","show_product1","27","","","1","","","","","","","","","","",""
"html-keyboard-response","272","512189","0.0-9.0-1.0-3.27","5c519ec789254700019f7934","","","","","","null","<img class=right_person src='images/persons/person1.jpg'><img class=reward src='images/one_coin.png'><img class=product src='images/products/book.jpg'>","null","","","exp","show_reward1","27","","","1","1","","","","","","","","","",""
"html-keyboard-response","273","512954","0.0-9.0-1.0-4.27","5c519ec789254700019f7934","","","","","","null","<img class=right_person src='images/persons/person1.jpg'><div class=""fixation"">+</div>","null","","","exp","show_choice","27","1","0","","","","","","","","","","","",""
"html-keyboard-response","274","513706","0.0-9.0-1.0-5.27","5c519ec789254700019f7934","","","","","","null","<img class=right_person src='images/persons/person1.jpg'><img class=product src='images/products/bicycle.jpg'><div class=""fixation"">+</div>","null","","","exp","show_product2","27","","","1","","","","","","","","","","",""
"html-keyboard-response","275","514721","0.0-9.0-1.0-6.27","5c519ec789254700019f7934","","","","","","null","<img class=right_person src='images/persons/person1.jpg'><img class=reward src='images/zero_coins.png'><img class=product src='images/products/bicycle.jpg'>","null","","","exp","show_reward2","27","1","0","1","1","0","0","4","0","0.204160175810004","0.800589261719891","0.279435646416368","0.326821825944158","0.255438100155521","0"
"html-keyboard-response","276","515734","0.0-9.0-1.0-0.28","5c519ec789254700019f7934","","","","","","858","<img class=left_person src='images/persons/person4.jpg'><img class=right_person src='images/persons/person5.jpg'><div class=""fixation"">+</div>","s","","","exp","choice","28","","","","","","","","","","","","","",""
"html-keyboard-response","277","516489","0.0-9.0-1.0-1.28","5c519ec789254700019f7934","","","","","","null","<img class=left_person src='images/persons/person4.jpg'><div class=""fixation"">+</div>","null","","","exp","show_choice","28","0","3","","","","","","","","","","","",""
"html-keyboard-response","278","517241","0.0-9.0-1.0-2.28","5c519ec789254700019f7934","","","","","","null","<img class=left_person src='images/persons/person4.jpg'><img class=product src='images/products/printer.jpg'><div class=""fixation"">+</div>","null","","","exp","show_product1","28","","","4","","","","","","","","","","",""
"html-keyboard-response","279","518243","0.0-9.0-1.0-3.28","5c519ec789254700019f7934","","","","","","null","<img class=left_person src='images/persons/person4.jpg'><img class=reward src='images/zero_coins.png'><img class=product src='images/products/printer.jpg'>","null","","","exp","show_reward1","28","","","4","0","","","","","","","","","",""
"html-keyboard-response","280","519003","0.0-9.0-1.0-4.28","5c519ec789254700019f7934","","","","","","null","<img class=left_person src='images/persons/person4.jpg'><div class=""fixation"">+</div>","null","","","exp","show_choice","28","0","3","","","","","","","","","","","",""
"html-keyboard-response","281","519756","0.0-9.0-1.0-5.28","5c519ec789254700019f7934","","","","","","null","<img class=left_person src='images/persons/person4.jpg'><img class=product src='images/products/necklace.jpg'><div class=""fixation"">+</div>","null","","","exp","show_product2","28","","","4","","","","","","","","","","",""
"html-keyboard-response","282","520757","0.0-9.0-1.0-6.28","5c519ec789254700019f7934","","","","","","null","<img class=left_person src='images/persons/person4.jpg'><img class=reward src='images/one_coin.png'><img class=product src='images/products/necklace.jpg'>","null","","","exp","show_reward2","28","0","3","4","0","3","1","3","4","0.214103769135423","0.79496582327025","0.258380662033127","0.31058308837626","0.239063090883422","0"
"html-keyboard-response","283","521675","0.0-9.0-1.0-0.29","5c519ec789254700019f7934","","","","","","765","<img class=left_person src='images/persons/person3.jpg'><img class=right_person src='images/persons/person4.jpg'><div class=""fixation"">+</div>","s","","","exp","choice","29","","","","","","","","","","","","","",""
"html-keyboard-response","284","522439","0.0-9.0-1.0-1.29","5c519ec789254700019f7934","","","","","","null","<img class=left_person src='images/persons/person3.jpg'><div class=""fixation"">+</div>","null","","","exp","show_choice","29","0","2","","","","","","","","","","","",""
"html-keyboard-response","285","523204","0.0-9.0-1.0-2.29","5c519ec789254700019f7934","","","","","","null","<img class=left_person src='images/persons/person3.jpg'><img class=product src='images/products/necklace.jpg'><div class=""fixation"">+</div>","null","","","exp","show_product1","29","","","3","","","","","","","","","","",""
"html-keyboard-response","286","524206","0.0-9.0-1.0-3.29","5c519ec789254700019f7934","","","","","","null","<img class=left_person src='images/persons/person3.jpg'><img class=reward src='images/one_coin.png'><img class=product src='images/products/necklace.jpg'>","null","","","exp","show_reward1","29","","","3","1","","","","","","","","","",""
"html-keyboard-response","287","524972","0.0-9.0-1.0-4.29","5c519ec789254700019f7934","","","","","","null","<img class=left_person src='images/persons/person3.jpg'><div class=""fixation"">+</div>","null","","","exp","show_choice","29","0","2","","","","","","","","","","","",""
"html-keyboard-response","288","525727","0.0-9.0-1.0-5.29","5c519ec789254700019f7934","","","","","","null","<img class=left_person src='images/persons/person3.jpg'><img class=product src='images/products/cake.jpg'><div class=""fixation"">+</div>","null","","","exp","show_product2","29","","","3","","","","","","","","","","",""
"html-keyboard-response","289","526730","0.0-9.0-1.0-6.29","5c519ec789254700019f7934","","","","","","null","<img class=left_person src='images/persons/person3.jpg'><img class=reward src='images/zero_coins.png'><img class=product src='images/products/cake.jpg'>","null","","","exp","show_reward2","29","0","2","3","1","2","0","2","3","0.152198777187837","0.793966821218178","0.23859545988254","0.349074875478763","0.218691793391814","0"
"html-keyboard-response","290","528878","0.0-9.0-1.0-0.30","5c519ec789254700019f7934","","","","","","1983","<img class=left_person src='images/persons/person1.jpg'><img class=right_person src='images/persons/person5.jpg'><div class=""fixation"">+</div>","s","","","exp","choice","30","","","","","","","","","","","","","",""
"html-keyboard-response","291","529633","0.0-9.0-1.0-1.30","5c519ec789254700019f7934","","","","","","null","<img class=left_person src='images/persons/person1.jpg'><div class=""fixation"">+</div>","null","","","exp","show_choice","30","0","0","","","","","","","","","","","",""
"html-keyboard-response","292","530399","0.0-9.0-1.0-2.30","5c519ec789254700019f7934","","","","","","null","<img class=left_person src='images/persons/person1.jpg'><img class=product src='images/products/bicycle.jpg'><div class=""fixation"">+</div>","null","","","exp","show_product1","30","","","0","","","","","","","","","","",""
"html-keyboard-response","293","531416","0.0-9.0-1.0-3.30","5c519ec789254700019f7934","","","","","","null","<img class=left_person src='images/persons/person1.jpg'><img class=reward src='images/zero_coins.png'><img class=product src='images/products/bicycle.jpg'>","null","","","exp","show_reward1","30","","","0","0","","","","","","","","","",""
"html-keyboard-response","294","532180","0.0-9.0-1.0-4.30","5c519ec789254700019f7934","","","","","","null","<img class=left_person src='images/persons/person1.jpg'><div class=""fixation"">+</div>","null","","","exp","show_choice","30","0","0","","","","","","","","","","","",""
"html-keyboard-response","295","532945","0.0-9.0-1.0-5.30","5c519ec789254700019f7934","","","","","","null","<img class=left_person src='images/persons/person1.jpg'><img class=product src='images/products/book.jpg'><div class=""fixation"">+</div>","null","","","exp","show_product2","30","","","0","","","","","","","","","","",""
"html-keyboard-response","296","533960","0.0-9.0-1.0-6.30","5c519ec789254700019f7934","","","","","","null","<img class=left_person src='images/persons/person1.jpg'><img class=reward src='images/one_coin.png'><img class=product src='images/products/book.jpg'>","null","","","exp","show_reward2","30","0","0","0","0","1","1","0","4","0.185953745951542","0.815494707076813","0.194980100369782","0.38646502428989","0.276230682751335","0"
