"trial_type","trial_index","time_elapsed","internal_node_id","subject_id","success","timeout","failed_images","failed_audio","failed_video","rt","stimulus","response","view_history","question_order","phase","trial_name","trial_num","key_selected","person_selected","first_product","reward1","second_product","reward2","left_person","right_person","prob_product1","prob_product2","prob_product3","prob_product4","prob_product5","counterbalance"
"pavlovia","0","1336","0.0-0.0","662f798279ec5f7604eaaaa0","","","","","","","","","","","","","","","","","","","","","","","","","","",""
"preload","1","19315","0.0-1.0","662f798279ec5f7604eaaaa0","true","false","[]","[]","[]","","","","","","","","","","","","","","","","","","","","","",""
"html-button-response","2","25523","0.0-2.0","662f798279ec5f7604eaaaa0","","","","","","6204","<h2><b>Consent to participate in a research:</b></h2><p><strong>You will be paid only after participating in each of the 4 days (including today).</p>","1","","","","","","","","","","","","","","","","","","",""
"fullscreen","3","29104","0.0-3.0","662f798279ec5f7604eaaaa0","true","","","","","","","","","","","","","","","","","","","","","","","","","",""
"instructions","4","240178","0.0-4.0-0.0","662f798279ec5f7604eaaaa0","","","","","","211072","","","[{""page_index"":0,""viewing_time"":2669},{""page_index"":1,""viewing_time"":2257},{""page_index"":2,""viewing_time"":10058},{""page_index"":3,""viewing_time"":15899},{""page_index"":4,""viewing_time"":15811},{""page_index"":5,""viewing_time"":16476},{""page_index"":6,""viewing_time"":5999},{""page_index"":7,""viewing_time"":9656},{""page_index"":8,""viewing_time"":4805},{""page_index"":9,""viewing_time"":5343},{""page_index"":10,""viewing_time"":6077},{""page_index"":11,""viewing_time"":16947},{""page_index"":12,""viewing_time"":4468},{""page_index"":13,""viewing_time"":9973},{""page_index"":14,""viewing_time"":25227},{""page_index"":15,""viewing_time"":4305},{""page_index"":16,""viewing_time"":11869},{""page_index"":17,""viewing_time"":2656},{""page_index"":18,""viewing_time"":5867},{""page_index"":19,""viewing_time"":15971},{""page_index"":20,""viewing_time"":12292},{""page_index"":21,""viewing_time"":4827},{""page_index"":22,""viewing_time"":1620}]","","","","","","","","","","","","","","","","","",""
"survey-multi-choice","5","302518","0.0-4.0-1.0","662f798279ec5f7604eaaaa0","","","","","","62334","","{""number_persons"":""5"",""number_candidates"":""2"",""number_products"":""2"",""choose_candidate"":""Press the 'S' or 'K' key with your LEFT or RIGHT hand"",""transported_product"":""False, each delivery person can only deliver two products"",""product_person"":""False, the book has the same demand no matter who is delivering it"",""value_change"":""True, as in real markets the demand may slowly change"",""game_goal"":""The goal is to choose the best I can and earn as much bonus money as I can"",""independence"":""False, each product has its own demand in the market"",""location"":""The demand for the products is the same regardless of whether the chosen delivery person appears on the left or on the right""}","","[0,1,2,3,4,5,6,7,8,9]","","","","","","","","","","","","","","","","",""
"instructions","6","325278","0.0-5.0","662f798279ec5f7604eaaaa0","","","","","","22754","","","[{""page_index"":0,""viewing_time"":2173},{""page_index"":1,""viewing_time"":7562},{""page_index"":2,""viewing_time"":3241},{""page_index"":3,""viewing_time"":4464},{""page_index"":4,""viewing_time"":2499},{""page_index"":5,""viewing_time"":2814}]","","","","","","","","","","","","","","","","","",""
"html-keyboard-response","7","327885","0.0-6.0","662f798279ec5f7604eaaaa0","","","","","","2603","<div>We will now do a few practice trials. <br> Please be ready with your fingers on <b>s</b> and <b>k</b><br><br> <img class=keyboard src='images/examples/keyboard.png'>  <br><br> <b> Press any key to begin</b></div>","s","","","","","","","","","","","","","","","","","","",""
"html-keyboard-response","8","330020","0.0-7.0-0.0","662f798279ec5f7604eaaaa0","","","","","","1125","<img class=left_person src='images/persons/person3.jpg'><img class=right_person src='images/persons/person4.jpg'><div class=""fixation"">+</div>","s","","","practice","choice","0","","","","","","","","","","","","","",""
"html-keyboard-response","9","330785","0.0-7.0-1.0","662f798279ec5f7604eaaaa0","","","","","","null","<img class=left_person src='images/persons/person3.jpg'><div class=""fixation"">+</div>","null","","","practice","show_choice","0","0","2","","","","","","","","","","","",""
"html-keyboard-response","10","331545","0.0-7.0-2.0","662f798279ec5f7604eaaaa0","","","","","","null","<img class=left_person src='images/persons/person3.jpg'><img class=product src='images/products/necklace.jpg'><div class=""fixation"">+</div>","null","","","practice","show_product1","0","","","3","","","","","","","","","","",""
"html-keyboard-response","11","332561","0.0-7.0-3.0","662f798279ec5f7604eaaaa0","","","","","","null","<img class=left_person src='images/persons/person3.jpg'><img class=reward src='images/zero_coins.png'><img class=product src='images/products/necklace.jpg'>","null","","","practice","show_reward1","0","","","3","0","","","","","","","","","",""
"html-keyboard-response","12","333317","0.0-7.0-4.0","662f798279ec5f7604eaaaa0","","","","","","null","<img class=left_person src='images/persons/person3.jpg'><div class=""fixation"">+</div>","null","","","practice","show_choice","0","0","2","","","","","","","","","","","",""
"html-keyboard-response","13","334077","0.0-7.0-5.0","662f798279ec5f7604eaaaa0","","","","","","null","<img class=left_person src='images/persons/person3.jpg'><img class=product src='images/products/cake.jpg'><div class=""fixation"">+</div>","null","","","practice","show_product2","0","","","","","2","","","","","","","","",""
"html-keyboard-response","14","335086","0.0-7.0-6.0","662f798279ec5f7604eaaaa0","","","","","","null","<img class=left_person src='images/persons/person3.jpg'><img class=reward src='images/zero_coins.png'><img class=product src='images/products/cake.jpg'>","null","","","practice","show_reward2","0","0","2","3","0","2","0","","","","","","","",""
"html-keyboard-response","15","336640","0.0-7.0-0.1","662f798279ec5f7604eaaaa0","","","","","","1397","<img class=left_person src='images/persons/person4.jpg'><img class=right_person src='images/persons/person3.jpg'><div class=""fixation"">+</div>","s","","","practice","choice","1","","","","","","","","","","","","","",""
"html-keyboard-response","16","337405","0.0-7.0-1.1","662f798279ec5f7604eaaaa0","","","","","","null","<img class=left_person src='images/persons/person4.jpg'><div class=""fixation"">+</div>","null","","","practice","show_choice","1","0","3","","","","","","","","","","","",""
"html-keyboard-response","17","338173","0.0-7.0-2.1","662f798279ec5f7604eaaaa0","","","","","","null","<img class=left_person src='images/persons/person4.jpg'><img class=product src='images/products/printer.jpg'><div class=""fixation"">+</div>","null","","","practice","show_product1","1","","","4","","","","","","","","","","",""
"html-keyboard-response","18","339186","0.0-7.0-3.1","662f798279ec5f7604eaaaa0","","","","","","null","<img class=left_person src='images/persons/person4.jpg'><img class=reward src='images/zero_coins.png'><img class=product src='images/products/printer.jpg'>","null","","","practice","show_reward1","1","","","4","0","","","","","","","","","",""
"html-keyboard-response","19","339949","0.0-7.0-4.1","662f798279ec5f7604eaaaa0","","","","","","null","<img class=left_person src='images/persons/person4.jpg'><div class=""fixation"">+</div>","null","","","practice","show_choice","1","0","3","","","","","","","","","","","",""
"html-keyboard-response","20","340714","0.0-7.0-5.1","662f798279ec5f7604eaaaa0","","","","","","null","<img class=left_person src='images/persons/person4.jpg'><img class=product src='images/products/necklace.jpg'><div class=""fixation"">+</div>","null","","","practice","show_product2","1","","","","","3","","","","","","","","",""
"html-keyboard-response","21","341728","0.0-7.0-6.1","662f798279ec5f7604eaaaa0","","","","","","null","<img class=left_person src='images/persons/person4.jpg'><img class=reward src='images/one_coin.png'><img class=product src='images/products/necklace.jpg'>","null","","","practice","show_reward2","1","0","3","4","0","3","1","","","","","","","",""
"html-keyboard-response","22","343399","0.0-7.0-0.2","662f798279ec5f7604eaaaa0","","","","","","1513","<img class=left_person src='images/persons/person4.jpg'><img class=right_person src='images/persons/person3.jpg'><div class=""fixation"">+</div>","k","","","practice","choice","2","","","","","","","","","","","","","",""
"html-keyboard-response","23","344158","0.0-7.0-1.2","662f798279ec5f7604eaaaa0","","","","","","null","<img class=right_person src='images/persons/person3.jpg'><div class=""fixation"">+</div>","null","","","practice","show_choice","2","1","2","","","","","","","","","","","",""
"html-keyboard-response","24","344920","0.0-7.0-2.2","662f798279ec5f7604eaaaa0","","","","","","null","<img class=right_person src='images/persons/person3.jpg'><img class=product src='images/products/necklace.jpg'><div class=""fixation"">+</div>","null","","","practice","show_product1","2","","","3","","","","","","","","","","",""
"html-keyboard-response","25","345927","0.0-7.0-3.2","662f798279ec5f7604eaaaa0","","","","","","null","<img class=right_person src='images/persons/person3.jpg'><img class=reward src='images/one_coin.png'><img class=product src='images/products/necklace.jpg'>","null","","","practice","show_reward1","2","","","3","1","","","","","","","","","",""
"html-keyboard-response","26","346689","0.0-7.0-4.2","662f798279ec5f7604eaaaa0","","","","","","null","<img class=right_person src='images/persons/person3.jpg'><div class=""fixation"">+</div>","null","","","practice","show_choice","2","1","2","","","","","","","","","","","",""
"html-keyboard-response","27","347452","0.0-7.0-5.2","662f798279ec5f7604eaaaa0","","","","","","null","<img class=right_person src='images/persons/person3.jpg'><img class=product src='images/products/cake.jpg'><div class=""fixation"">+</div>","null","","","practice","show_product2","2","","","","","2","","","","","","","","",""
"html-keyboard-response","28","348463","0.0-7.0-6.2","662f798279ec5f7604eaaaa0","","","","","","null","<img class=right_person src='images/persons/person3.jpg'><img class=reward src='images/one_coin.png'><img class=product src='images/products/cake.jpg'>","null","","","practice","show_reward2","2","1","2","3","1","2","1","","","","","","","",""
"html-keyboard-response","29","351110","0.0-7.0-0.3","662f798279ec5f7604eaaaa0","","","","","","2490","<img class=left_person src='images/persons/person2.jpg'><img class=right_person src='images/persons/person1.jpg'><div class=""fixation"">+</div>","s","","","practice","choice","3","","","","","","","","","","","","","",""
"html-keyboard-response","30","351864","0.0-7.0-1.3","662f798279ec5f7604eaaaa0","","","","","","null","<img class=left_person src='images/persons/person2.jpg'><div class=""fixation"">+</div>","null","","","practice","show_choice","3","0","1","","","","","","","","","","","",""
"html-keyboard-response","31","352629","0.0-7.0-2.3","662f798279ec5f7604eaaaa0","","","","","","null","<img class=left_person src='images/persons/person2.jpg'><img class=product src='images/products/book.jpg'><div class=""fixation"">+</div>","null","","","practice","show_product1","3","","","1","","","","","","","","","","",""
"html-keyboard-response","32","353645","0.0-7.0-3.3","662f798279ec5f7604eaaaa0","","","","","","null","<img class=left_person src='images/persons/person2.jpg'><img class=reward src='images/zero_coins.png'><img class=product src='images/products/book.jpg'>","null","","","practice","show_reward1","3","","","1","0","","","","","","","","","",""
"html-keyboard-response","33","354408","0.0-7.0-4.3","662f798279ec5f7604eaaaa0","","","","","","null","<img class=left_person src='images/persons/person2.jpg'><div class=""fixation"">+</div>","null","","","practice","show_choice","3","0","1","","","","","","","","","","","",""
"html-keyboard-response","34","355175","0.0-7.0-5.3","662f798279ec5f7604eaaaa0","","","","","","null","<img class=left_person src='images/persons/person2.jpg'><img class=product src='images/products/cake.jpg'><div class=""fixation"">+</div>","null","","","practice","show_product2","3","","","","","2","","","","","","","","",""
"html-keyboard-response","35","356189","0.0-7.0-6.3","662f798279ec5f7604eaaaa0","","","","","","null","<img class=left_person src='images/persons/person2.jpg'><img class=reward src='images/one_coin.png'><img class=product src='images/products/cake.jpg'>","null","","","practice","show_reward2","3","0","1","1","0","2","1","","","","","","","",""
"html-keyboard-response","36","359611","0.0-7.0-0.4","662f798279ec5f7604eaaaa0","","","","","","3267","<img class=left_person src='images/persons/person1.jpg'><img class=right_person src='images/persons/person2.jpg'><div class=""fixation"">+</div>","k","","","practice","choice","4","","","","","","","","","","","","","",""
"html-keyboard-response","37","360364","0.0-7.0-1.4","662f798279ec5f7604eaaaa0","","","","","","null","<img class=right_person src='images/persons/person2.jpg'><div class=""fixation"">+</div>","null","","","practice","show_choice","4","1","1","","","","","","","","","","","",""
"html-keyboard-response","38","361129","0.0-7.0-2.4","662f798279ec5f7604eaaaa0","","","","","","null","<img class=right_person src='images/persons/person2.jpg'><img class=product src='images/products/book.jpg'><div class=""fixation"">+</div>","null","","","practice","show_product1","4","","","1","","","","","","","","","","",""
"html-keyboard-response","39","362143","0.0-7.0-3.4","662f798279ec5f7604eaaaa0","","","","","","null","<img class=right_person src='images/persons/person2.jpg'><img class=reward src='images/zero_coins.png'><img class=product src='images/products/book.jpg'>","null","","","practice","show_reward1","4","","","1","0","","","","","","","","","",""
"html-keyboard-response","40","362905","0.0-7.0-4.4","662f798279ec5f7604eaaaa0","","","","","","null","<img class=right_person src='images/persons/person2.jpg'><div class=""fixation"">+</div>","null","","","practice","show_choice","4","1","1","","","","","","","","","","","",""
"html-keyboard-response","41","363671","0.0-7.0-5.4","662f798279ec5f7604eaaaa0","","","","","","null","<img class=right_person src='images/persons/person2.jpg'><img class=product src='images/products/cake.jpg'><div class=""fixation"">+</div>","null","","","practice","show_product2","4","","","","","2","","","","","","","","",""
"html-keyboard-response","42","364686","0.0-7.0-6.4","662f798279ec5f7604eaaaa0","","","","","","null","<img class=right_person src='images/persons/person2.jpg'><img class=reward src='images/zero_coins.png'><img class=product src='images/products/cake.jpg'>","null","","","practice","show_reward2","4","1","1","1","0","2","0","","","","","","","",""
"html-keyboard-response","43","366347","0.0-7.0-0.5","662f798279ec5f7604eaaaa0","","","","","","1503","<img class=left_person src='images/persons/person5.jpg'><img class=right_person src='images/persons/person4.jpg'><div class=""fixation"">+</div>","k","","","practice","choice","5","","","","","","","","","","","","","",""
"html-keyboard-response","44","367109","0.0-7.0-1.5","662f798279ec5f7604eaaaa0","","","","","","null","<img class=right_person src='images/persons/person4.jpg'><div class=""fixation"">+</div>","null","","","practice","show_choice","5","1","3","","","","","","","","","","","",""
"html-keyboard-response","45","367870","0.0-7.0-2.5","662f798279ec5f7604eaaaa0","","","","","","null","<img class=right_person src='images/persons/person4.jpg'><img class=product src='images/products/printer.jpg'><div class=""fixation"">+</div>","null","","","practice","show_product1","5","","","4","","","","","","","","","","",""
"html-keyboard-response","46","368881","0.0-7.0-3.5","662f798279ec5f7604eaaaa0","","","","","","null","<img class=right_person src='images/persons/person4.jpg'><img class=reward src='images/zero_coins.png'><img class=product src='images/products/printer.jpg'>","null","","","practice","show_reward1","5","","","4","0","","","","","","","","","",""
"html-keyboard-response","47","369644","0.0-7.0-4.5","662f798279ec5f7604eaaaa0","","","","","","null","<img class=right_person src='images/persons/person4.jpg'><div class=""fixation"">+</div>","null","","","practice","show_choice","5","1","3","","","","","","","","","","","",""
"html-keyboard-response","48","370407","0.0-7.0-5.5","662f798279ec5f7604eaaaa0","","","","","","null","<img class=right_person src='images/persons/person4.jpg'><img class=product src='images/products/necklace.jpg'><div class=""fixation"">+</div>","null","","","practice","show_product2","5","","","","","3","","","","","","","","",""
"html-keyboard-response","49","371418","0.0-7.0-6.5","662f798279ec5f7604eaaaa0","","","","","","null","<img class=right_person src='images/persons/person4.jpg'><img class=reward src='images/zero_coins.png'><img class=product src='images/products/necklace.jpg'>","null","","","practice","show_reward2","5","1","3","4","0","3","0","","","","","","","",""
"html-keyboard-response","50","372795","0.0-7.0-0.6","662f798279ec5f7604eaaaa0","","","","","","1219","<img class=left_person src='images/persons/person4.jpg'><img class=right_person src='images/persons/person5.jpg'><div class=""fixation"">+</div>","k","","","practice","choice","6","","","","","","","","","","","","","",""
"html-keyboard-response","51","373549","0.0-7.0-1.6","662f798279ec5f7604eaaaa0","","","","","","null","<img class=right_person src='images/persons/person5.jpg'><div class=""fixation"">+</div>","null","","","practice","show_choice","6","1","4","","","","","","","","","","","",""
"html-keyboard-response","52","374315","0.0-7.0-2.6","662f798279ec5f7604eaaaa0","","","","","","null","<img class=right_person src='images/persons/person5.jpg'><img class=product src='images/products/bicycle.jpg'><div class=""fixation"">+</div>","null","","","practice","show_product1","6","","","0","","","","","","","","","","",""
"html-keyboard-response","53","375326","0.0-7.0-3.6","662f798279ec5f7604eaaaa0","","","","","","null","<img class=right_person src='images/persons/person5.jpg'><img class=reward src='images/zero_coins.png'><img class=product src='images/products/bicycle.jpg'>","null","","","practice","show_reward1","6","","","0","0","","","","","","","","","",""
"html-keyboard-response","54","376085","0.0-7.0-4.6","662f798279ec5f7604eaaaa0","","","","","","null","<img class=right_person src='images/persons/person5.jpg'><div class=""fixation"">+</div>","null","","","practice","show_choice","6","1","4","","","","","","","","","","","",""
"html-keyboard-response","55","376848","0.0-7.0-5.6","662f798279ec5f7604eaaaa0","","","","","","null","<img class=right_person src='images/persons/person5.jpg'><img class=product src='images/products/printer.jpg'><div class=""fixation"">+</div>","null","","","practice","show_product2","6","","","","","4","","","","","","","","",""
"html-keyboard-response","56","377859","0.0-7.0-6.6","662f798279ec5f7604eaaaa0","","","","","","null","<img class=right_person src='images/persons/person5.jpg'><img class=reward src='images/zero_coins.png'><img class=product src='images/products/printer.jpg'>","null","","","practice","show_reward2","6","1","4","0","0","4","0","","","","","","","",""
"html-keyboard-response","57","379169","0.0-7.0-0.7","662f798279ec5f7604eaaaa0","","","","","","1152","<img class=left_person src='images/persons/person1.jpg'><img class=right_person src='images/persons/person5.jpg'><div class=""fixation"">+</div>","s","","","practice","choice","7","","","","","","","","","","","","","",""
"html-keyboard-response","58","379933","0.0-7.0-1.7","662f798279ec5f7604eaaaa0","","","","","","null","<img class=left_person src='images/persons/person1.jpg'><div class=""fixation"">+</div>","null","","","practice","show_choice","7","0","0","","","","","","","","","","","",""
"html-keyboard-response","59","380697","0.0-7.0-2.7","662f798279ec5f7604eaaaa0","","","","","","null","<img class=left_person src='images/persons/person1.jpg'><img class=product src='images/products/book.jpg'><div class=""fixation"">+</div>","null","","","practice","show_product1","7","","","1","","","","","","","","","","",""
"html-keyboard-response","60","381706","0.0-7.0-3.7","662f798279ec5f7604eaaaa0","","","","","","null","<img class=left_person src='images/persons/person1.jpg'><img class=reward src='images/zero_coins.png'><img class=product src='images/products/book.jpg'>","null","","","practice","show_reward1","7","","","1","0","","","","","","","","","",""
"html-keyboard-response","61","382468","0.0-7.0-4.7","662f798279ec5f7604eaaaa0","","","","","","null","<img class=left_person src='images/persons/person1.jpg'><div class=""fixation"">+</div>","null","","","practice","show_choice","7","0","0","","","","","","","","","","","",""
"html-keyboard-response","62","383235","0.0-7.0-5.7","662f798279ec5f7604eaaaa0","","","","","","null","<img class=left_person src='images/persons/person1.jpg'><img class=product src='images/products/bicycle.jpg'><div class=""fixation"">+</div>","null","","","practice","show_product2","7","","","","","0","","","","","","","","",""
"html-keyboard-response","63","384237","0.0-7.0-6.7","662f798279ec5f7604eaaaa0","","","","","","null","<img class=left_person src='images/persons/person1.jpg'><img class=reward src='images/zero_coins.png'><img class=product src='images/products/bicycle.jpg'>","null","","","practice","show_reward2","7","0","0","1","0","0","0","","","","","","","",""
"html-keyboard-response","64","386496","0.0-7.0-0.8","662f798279ec5f7604eaaaa0","","","","","","2102","<img class=left_person src='images/persons/person2.jpg'><img class=right_person src='images/persons/person3.jpg'><div class=""fixation"">+</div>","k","","","practice","choice","8","","","","","","","","","","","","","",""
"html-keyboard-response","65","387252","0.0-7.0-1.8","662f798279ec5f7604eaaaa0","","","","","","null","<img class=right_person src='images/persons/person3.jpg'><div class=""fixation"">+</div>","null","","","practice","show_choice","8","1","2","","","","","","","","","","","",""
"html-keyboard-response","66","388015","0.0-7.0-2.8","662f798279ec5f7604eaaaa0","","","","","","null","<img class=right_person src='images/persons/person3.jpg'><img class=product src='images/products/cake.jpg'><div class=""fixation"">+</div>","null","","","practice","show_product1","8","","","2","","","","","","","","","","",""
"html-keyboard-response","67","389027","0.0-7.0-3.8","662f798279ec5f7604eaaaa0","","","","","","null","<img class=right_person src='images/persons/person3.jpg'><img class=reward src='images/zero_coins.png'><img class=product src='images/products/cake.jpg'>","null","","","practice","show_reward1","8","","","2","0","","","","","","","","","",""
"html-keyboard-response","68","389794","0.0-7.0-4.8","662f798279ec5f7604eaaaa0","","","","","","null","<img class=right_person src='images/persons/person3.jpg'><div class=""fixation"">+</div>","null","","","practice","show_choice","8","1","2","","","","","","","","","","","",""
"html-keyboard-response","69","390557","0.0-7.0-5.8","662f798279ec5f7604eaaaa0","","","","","","null","<img class=right_person src='images/persons/person3.jpg'><img class=product src='images/products/necklace.jpg'><div class=""fixation"">+</div>","null","","","practice","show_product2","8","","","","","3","","","","","","","","",""
"html-keyboard-response","70","391569","0.0-7.0-6.8","662f798279ec5f7604eaaaa0","","","","","","null","<img class=right_person src='images/persons/person3.jpg'><img class=reward src='images/one_coin.png'><img class=product src='images/products/necklace.jpg'>","null","","","practice","show_reward2","8","1","2","2","0","3","1","","","","","","","",""
"html-keyboard-response","71","394970","0.0-7.0-0.9","662f798279ec5f7604eaaaa0","","","","","","3244","<img class=left_person src='images/persons/person1.jpg'><img class=right_person src='images/persons/person5.jpg'><div class=""fixation"">+</div>","k","","","practice","choice","9","","","","","","","","","","","","","",""
"html-keyboard-response","72","395727","0.0-7.0-1.9","662f798279ec5f7604eaaaa0","","","","","","null","<img class=right_person src='images/persons/person5.jpg'><div class=""fixation"">+</div>","null","","","practice","show_choice","9","1","4","","","","","","","","","","","",""
"html-keyboard-response","73","396490","0.0-7.0-2.9","662f798279ec5f7604eaaaa0","","","","","","null","<img class=right_person src='images/persons/person5.jpg'><img class=product src='images/products/printer.jpg'><div class=""fixation"">+</div>","null","","","practice","show_product1","9","","","4","","","","","","","","","","",""
"html-keyboard-response","74","397502","0.0-7.0-3.9","662f798279ec5f7604eaaaa0","","","","","","null","<img class=right_person src='images/persons/person5.jpg'><img class=reward src='images/zero_coins.png'><img class=product src='images/products/printer.jpg'>","null","","","practice","show_reward1","9","","","4","0","","","","","","","","","",""
"html-keyboard-response","75","398267","0.0-7.0-4.9","662f798279ec5f7604eaaaa0","","","","","","null","<img class=right_person src='images/persons/person5.jpg'><div class=""fixation"">+</div>","null","","","practice","show_choice","9","1","4","","","","","","","","","","","",""
"html-keyboard-response","76","399030","0.0-7.0-5.9","662f798279ec5f7604eaaaa0","","","","","","null","<img class=right_person src='images/persons/person5.jpg'><img class=product src='images/products/bicycle.jpg'><div class=""fixation"">+</div>","null","","","practice","show_product2","9","","","","","0","","","","","","","","",""
"html-keyboard-response","77","400045","0.0-7.0-6.9","662f798279ec5f7604eaaaa0","","","","","","null","<img class=right_person src='images/persons/person5.jpg'><img class=reward src='images/one_coin.png'><img class=product src='images/products/bicycle.jpg'>","null","","","practice","show_reward2","9","1","4","4","0","0","1","","","","","","","",""
"html-keyboard-response","78","403340","0.0-8.0","662f798279ec5f7604eaaaa0","","","","","","3135","<div> Good job! Practice completed. <br> <br> We will now move on to the real game. Do your best to win as much reward as you can. Good luck!<br><br> <b>Press any key to continue.</b></div>"," ","","","","","","","","","","","","","","","","","","",""
"html-keyboard-response","79","407967","0.0-9.0-0.0","662f798279ec5f7604eaaaa0","","","","","","3620","<p><u>We will now start period number<b> 1 out of 4</b> of your business</u></p>Each period will include 50 days after which you will have a short break and then continue from the exact same point. <br> <br><p style=""text-align: left"">Use the LEFT or RIGHT response keys (""s"" or ""k"", in correspondence) to make your selection. <br> Please do your best to win as many coins as possible!<br> </p><p style=""text-align: left""><b>Remember that:</b> <br> 1) The demand for each product is specific to that product alone <br> 2) The demand for each product may gradually change over time </p><p> <b> <u>Please note that participants who engage with the task and pay close attention earn a much higher bonus than participants who respond randomly</u> </b> </p><p><b>Press SPACE to start</b></p>"," ","","","","","","","","","","","","","","","","","","",""
"html-keyboard-response","80","410317","0.0-9.0-1.0-0.0","662f798279ec5f7604eaaaa0","","","","","","1339","<img class=left_person src='images/persons/person1.jpg'><img class=right_person src='images/persons/person5.jpg'><div class=""fixation"">+</div>","s","","","exp","choice","0","","","","","","","","","","","","","",""
"html-keyboard-response","81","411071","0.0-9.0-1.0-1.0","662f798279ec5f7604eaaaa0","","","","","","null","<img class=left_person src='images/persons/person1.jpg'><div class=""fixation"">+</div>","null","","","exp","show_choice","0","0","0","","","","","","","","","","","",""
"html-keyboard-response","82","411837","0.0-9.0-1.0-2.0","662f798279ec5f7604eaaaa0","","","","","","null","<img class=left_person src='images/persons/person1.jpg'><img class=product src='images/products/bicycle.jpg'><div class=""fixation"">+</div>","null","","","exp","show_product1","0","","","0","","","","","","","","","","",""
"html-keyboard-response","83","412852","0.0-9.0-1.0-3.0","662f798279ec5f7604eaaaa0","","","","","","null","<img class=left_person src='images/persons/person1.jpg'><img class=reward src='images/zero_coins.png'><img class=product src='images/products/bicycle.jpg'>","null","","","exp","show_reward1","0","","","0","0","","","","","","","","","",""
"html-keyboard-response","84","413615","0.0-9.0-1.0-4.0","662f798279ec5f7604eaaaa0","","","","","","null","<img class=left_person src='images/persons/person1.jpg'><div class=""fixation"">+</div>","null","","","exp","show_choice","0","0","0","","","","","","","","","","","",""
"html-keyboard-response","85","414378","0.0-9.0-1.0-5.0","662f798279ec5f7604eaaaa0","","","","","","null","<img class=left_person src='images/persons/person1.jpg'><img class=product src='images/products/book.jpg'><div class=""fixation"">+</div>","null","","","exp","show_product2","0","","","0","","","","","","","","","","",""
"html-keyboard-response","86","415395","0.0-9.0-1.0-6.0","662f798279ec5f7604eaaaa0","","","","","","null","<img class=left_person src='images/persons/person1.jpg'><img class=reward src='images/one_coin.png'><img class=product src='images/products/book.jpg'>","null","","","exp","show_reward2","0","0","0","0","0","1","1","0","4","0.343502790248021","0.398421248164959","0.339054721035063","0.778893313347362","0.289537803153507","0"
"html-keyboard-response","87","416763","0.0-9.0-1.0-0.1","662f798279ec5f7604eaaaa0","","","","","","1211","<img class=left_person src='images/persons/person1.jpg'><img class=right_person src='images/persons/person5.jpg'><div class=""fixation"">+</div>","s","","","exp","choice","1","","","","","","","","","","","","","",""
"html-keyboard-response","88","417528","0.0-9.0-1.0-1.1","662f798279ec5f7604eaaaa0","","","","","","null","<img class=left_person src='images/persons/person1.jpg'><div class=""fixation"">+</div>","null","","","exp","show_choice","1","0","0","","","","","","","","","","","",""
"html-keyboard-response","89","418290","0.0-9.0-1.0-2.1","662f798279ec5f7604eaaaa0","","","","","","null","<img class=left_person src='images/persons/person1.jpg'><img class=product src='images/products/bicycle.jpg'><div class=""fixation"">+</div>","null","","","exp","show_product1","1","","","0","","","","","","","","","","",""
"html-keyboard-response","90","419306","0.0-9.0-1.0-3.1","662f798279ec5f7604eaaaa0","","","","","","null","<img class=left_person src='images/persons/person1.jpg'><img class=reward src='images/zero_coins.png'><img class=product src='images/products/bicycle.jpg'>","null","","","exp","show_reward1","1","","","0","0","","","","","","","","","",""
"html-keyboard-response","91","420072","0.0-9.0-1.0-4.1","662f798279ec5f7604eaaaa0","","","","","","null","<img class=left_person src='images/persons/person1.jpg'><div class=""fixation"">+</div>","null","","","exp","show_choice","1","0","0","","","","","","","","","","","",""
"html-keyboard-response","92","420834","0.0-9.0-1.0-5.1","662f798279ec5f7604eaaaa0","","","","","","null","<img class=left_person src='images/persons/person1.jpg'><img class=product src='images/products/book.jpg'><div class=""fixation"">+</div>","null","","","exp","show_product2","1","","","0","","","","","","","","","","",""
"html-keyboard-response","93","421839","0.0-9.0-1.0-6.1","662f798279ec5f7604eaaaa0","","","","","","null","<img class=left_person src='images/persons/person1.jpg'><img class=reward src='images/one_coin.png'><img class=product src='images/products/book.jpg'>","null","","","exp","show_reward2","1","0","0","0","0","1","1","0","4","0.329994350559224","0.387798084219054","0.335965829983181","0.846054525321231","0.299846721116845","0"
"html-keyboard-response","94","423307","0.0-9.0-1.0-0.2","662f798279ec5f7604eaaaa0","","","","","","1311","<img class=left_person src='images/persons/person3.jpg'><img class=right_person src='images/persons/person2.jpg'><div class=""fixation"">+</div>","k","","","exp","choice","2","","","","","","","","","","","","","",""
"html-keyboard-response","95","424070","0.0-9.0-1.0-1.2","662f798279ec5f7604eaaaa0","","","","","","null","<img class=right_person src='images/persons/person2.jpg'><div class=""fixation"">+</div>","null","","","exp","show_choice","2","1","1","","","","","","","","","","","",""
"html-keyboard-response","96","424834","0.0-9.0-1.0-2.2","662f798279ec5f7604eaaaa0","","","","","","null","<img class=right_person src='images/persons/person2.jpg'><img class=product src='images/products/book.jpg'><div class=""fixation"">+</div>","null","","","exp","show_product1","2","","","1","","","","","","","","","","",""
"html-keyboard-response","97","425842","0.0-9.0-1.0-3.2","662f798279ec5f7604eaaaa0","","","","","","null","<img class=right_person src='images/persons/person2.jpg'><img class=reward src='images/one_coin.png'><img class=product src='images/products/book.jpg'>","null","","","exp","show_reward1","2","","","1","1","","","","","","","","","",""
"html-keyboard-response","98","426594","0.0-9.0-1.0-4.2","662f798279ec5f7604eaaaa0","","","","","","null","<img class=right_person src='images/persons/person2.jpg'><div class=""fixation"">+</div>","null","","","exp","show_choice","2","1","1","","","","","","","","","","","",""
"html-keyboard-response","99","427362","0.0-9.0-1.0-5.2","662f798279ec5f7604eaaaa0","","","","","","null","<img class=right_person src='images/persons/person2.jpg'><img class=product src='images/products/cake.jpg'><div class=""fixation"">+</div>","null","","","exp","show_product2","2","","","1","","","","","","","","","","",""
"html-keyboard-response","100","428373","0.0-9.0-1.0-6.2","662f798279ec5f7604eaaaa0","","","","","","null","<img class=right_person src='images/persons/person2.jpg'><img class=reward src='images/one_coin.png'><img class=product src='images/products/cake.jpg'>","null","","","exp","show_reward2","2","1","1","1","1","2","1","2","1","0.293527371882266","0.337567205706629","0.286250421609827","0.85","0.274843270022677","0"
"html-keyboard-response","101","429555","0.0-9.0-1.0-0.3","662f798279ec5f7604eaaaa0","","","","","","1025","<img class=left_person src='images/persons/person3.jpg'><img class=right_person src='images/persons/person2.jpg'><div class=""fixation"">+</div>","k","","","exp","choice","3","","","","","","","","","","","","","",""
"html-keyboard-response","102","430321","0.0-9.0-1.0-1.3","662f798279ec5f7604eaaaa0","","","","","","null","<img class=right_person src='images/persons/person2.jpg'><div class=""fixation"">+</div>","null","","","exp","show_choice","3","1","1","","","","","","","","","","","",""
"html-keyboard-response","103","431087","0.0-9.0-1.0-2.3","662f798279ec5f7604eaaaa0","","","","","","null","<img class=right_person src='images/persons/person2.jpg'><img class=product src='images/products/book.jpg'><div class=""fixation"">+</div>","null","","","exp","show_product1","3","","","1","","","","","","","","","","",""
"html-keyboard-response","104","432097","0.0-9.0-1.0-3.3","662f798279ec5f7604eaaaa0","","","","","","null","<img class=right_person src='images/persons/person2.jpg'><img class=reward src='images/zero_coins.png'><img class=product src='images/products/book.jpg'>","null","","","exp","show_reward1","3","","","1","0","","","","","","","","","",""
"html-keyboard-response","105","432854","0.0-9.0-1.0-4.3","662f798279ec5f7604eaaaa0","","","","","","null","<img class=right_person src='images/persons/person2.jpg'><div class=""fixation"">+</div>","null","","","exp","show_choice","3","1","1","","","","","","","","","","","",""
"html-keyboard-response","106","433617","0.0-9.0-1.0-5.3","662f798279ec5f7604eaaaa0","","","","","","null","<img class=right_person src='images/persons/person2.jpg'><img class=product src='images/products/cake.jpg'><div class=""fixation"">+</div>","null","","","exp","show_product2","3","","","1","","","","","","","","","","",""
"html-keyboard-response","107","434626","0.0-9.0-1.0-6.3","662f798279ec5f7604eaaaa0","","","","","","null","<img class=right_person src='images/persons/person2.jpg'><img class=reward src='images/zero_coins.png'><img class=product src='images/products/cake.jpg'>","null","","","exp","show_reward2","3","1","1","1","0","2","0","2","1","0.280938725383915","0.33206206567583","0.278807069270183","0.846757000707076","0.236718868629124","0"
"html-keyboard-response","108","435995","0.0-9.0-1.0-0.4","662f798279ec5f7604eaaaa0","","","","","","1213","<img class=left_person src='images/persons/person2.jpg'><img class=right_person src='images/persons/person1.jpg'><div class=""fixation"">+</div>","k","","","exp","choice","4","","","","","","","","","","","","","",""
"html-keyboard-response","109","436759","0.0-9.0-1.0-1.4","662f798279ec5f7604eaaaa0","","","","","","null","<img class=right_person src='images/persons/person1.jpg'><div class=""fixation"">+</div>","null","","","exp","show_choice","4","1","0","","","","","","","","","","","",""
"html-keyboard-response","110","437525","0.0-9.0-1.0-2.4","662f798279ec5f7604eaaaa0","","","","","","null","<img class=right_person src='images/persons/person1.jpg'><img class=product src='images/products/bicycle.jpg'><div class=""fixation"">+</div>","null","","","exp","show_product1","4","","","0","","","","","","","","","","",""
"html-keyboard-response","111","438539","0.0-9.0-1.0-3.4","662f798279ec5f7604eaaaa0","","","","","","null","<img class=right_person src='images/persons/person1.jpg'><img class=reward src='images/one_coin.png'><img class=product src='images/products/bicycle.jpg'>","null","","","exp","show_reward1","4","","","0","1","","","","","","","","","",""
"html-keyboard-response","112","439304","0.0-9.0-1.0-4.4","662f798279ec5f7604eaaaa0","","","","","","null","<img class=right_person src='images/persons/person1.jpg'><div class=""fixation"">+</div>","null","","","exp","show_choice","4","1","0","","","","","","","","","","","",""
"html-keyboard-response","113","440066","0.0-9.0-1.0-5.4","662f798279ec5f7604eaaaa0","","","","","","null","<img class=right_person src='images/persons/person1.jpg'><img class=product src='images/products/book.jpg'><div class=""fixation"">+</div>","null","","","exp","show_product2","4","","","0","","","","","","","","","","",""
"html-keyboard-response","114","441081","0.0-9.0-1.0-6.4","662f798279ec5f7604eaaaa0","","","","","","null","<img class=right_person src='images/persons/person1.jpg'><img class=reward src='images/one_coin.png'><img class=product src='images/products/book.jpg'>","null","","","exp","show_reward2","4","1","0","0","1","1","1","1","0","0.221197409994924","0.358751459715856","0.243988636266297","0.85","0.214196326335405","0"
"html-keyboard-response","115","444037","0.0-9.0-1.0-0.5","662f798279ec5f7604eaaaa0","","","","","","2800","<img class=left_person src='images/persons/person5.jpg'><img class=right_person src='images/persons/person1.jpg'><div class=""fixation"">+</div>","s","","","exp","choice","5","","","","","","","","","","","","","",""
"html-keyboard-response","116","444793","0.0-9.0-1.0-1.5","662f798279ec5f7604eaaaa0","","","","","","null","<img class=left_person src='images/persons/person5.jpg'><div class=""fixation"">+</div>","null","","","exp","show_choice","5","0","4","","","","","","","","","","","",""
"html-keyboard-response","117","445553","0.0-9.0-1.0-2.5","662f798279ec5f7604eaaaa0","","","","","","null","<img class=left_person src='images/persons/person5.jpg'><img class=product src='images/products/bicycle.jpg'><div class=""fixation"">+</div>","null","","","exp","show_product1","5","","","0","","","","","","","","","","",""
"html-keyboard-response","118","446563","0.0-9.0-1.0-3.5","662f798279ec5f7604eaaaa0","","","","","","null","<img class=left_person src='images/persons/person5.jpg'><img class=reward src='images/zero_coins.png'><img class=product src='images/products/bicycle.jpg'>","null","","","exp","show_reward1","5","","","0","0","","","","","","","","","",""
"html-keyboard-response","119","447330","0.0-9.0-1.0-4.5","662f798279ec5f7604eaaaa0","","","","","","null","<img class=left_person src='images/persons/person5.jpg'><div class=""fixation"">+</div>","null","","","exp","show_choice","5","0","4","","","","","","","","","","","",""
"html-keyboard-response","120","448094","0.0-9.0-1.0-5.5","662f798279ec5f7604eaaaa0","","","","","","null","<img class=left_person src='images/persons/person5.jpg'><img class=product src='images/products/printer.jpg'><div class=""fixation"">+</div>","null","","","exp","show_product2","5","","","0","","","","","","","","","","",""
"html-keyboard-response","121","449104","0.0-9.0-1.0-6.5","662f798279ec5f7604eaaaa0","","","","","","null","<img class=left_person src='images/persons/person5.jpg'><img class=reward src='images/one_coin.png'><img class=product src='images/products/printer.jpg'>","null","","","exp","show_reward2","5","0","4","0","0","4","1","4","0","0.208110415056518","0.365527449429072","0.25735296143425","0.85","0.222663034807391","0"
"html-keyboard-response","122","451614","0.0-9.0-1.0-0.6","662f798279ec5f7604eaaaa0","","","","","","2353","<img class=left_person src='images/persons/person3.jpg'><img class=right_person src='images/persons/person2.jpg'><div class=""fixation"">+</div>","s","","","exp","choice","6","","","","","","","","","","","","","",""
"html-keyboard-response","123","452373","0.0-9.0-1.0-1.6","662f798279ec5f7604eaaaa0","","","","","","null","<img class=left_person src='images/persons/person3.jpg'><div class=""fixation"">+</div>","null","","","exp","show_choice","6","0","2","","","","","","","","","","","",""
"html-keyboard-response","124","453139","0.0-9.0-1.0-2.6","662f798279ec5f7604eaaaa0","","","","","","null","<img class=left_person src='images/persons/person3.jpg'><img class=product src='images/products/cake.jpg'><div class=""fixation"">+</div>","null","","","exp","show_product1","6","","","2","","","","","","","","","","",""
"html-keyboard-response","125","454150","0.0-9.0-1.0-3.6","662f798279ec5f7604eaaaa0","","","","","","null","<img class=left_person src='images/persons/person3.jpg'><img class=reward src='images/one_coin.png'><img class=product src='images/products/cake.jpg'>","null","","","exp","show_reward1","6","","","2","1","","","","","","","","","",""
"html-keyboard-response","126","454911","0.0-9.0-1.0-4.6","662f798279ec5f7604eaaaa0","","","","","","null","<img class=left_person src='images/persons/person3.jpg'><div class=""fixation"">+</div>","null","","","exp","show_choice","6","0","2","","","","","","","","","","","",""
"html-keyboard-response","127","455676","0.0-9.0-1.0-5.6","662f798279ec5f7604eaaaa0","","","","","","null","<img class=left_person src='images/persons/person3.jpg'><img class=product src='images/products/necklace.jpg'><div class=""fixation"">+</div>","null","","","exp","show_product2","6","","","2","","","","","","","","","","",""
"html-keyboard-response","128","456687","0.0-9.0-1.0-6.6","662f798279ec5f7604eaaaa0","","","","","","null","<img class=left_person src='images/persons/person3.jpg'><img class=reward src='images/one_coin.png'><img class=product src='images/products/necklace.jpg'>","null","","","exp","show_reward2","6","0","2","2","1","3","1","2","1","0.223149338494514","0.371769169772707","0.253935888731449","0.84885873178951","0.275808294291624","0"
"html-keyboard-response","129","458034","0.0-9.0-1.0-0.7","662f798279ec5f7604eaaaa0","","","","","","1190","<img class=left_person src='images/persons/person4.jpg'><img class=right_person src='images/persons/person3.jpg'><div class=""fixation"">+</div>","k","","","exp","choice","7","","","","","","","","","","","","","",""
"html-keyboard-response","130","458797","0.0-9.0-1.0-1.7","662f798279ec5f7604eaaaa0","","","","","","null","<img class=right_person src='images/persons/person3.jpg'><div class=""fixation"">+</div>","null","","","exp","show_choice","7","1","2","","","","","","","","","","","",""
"html-keyboard-response","131","459549","0.0-9.0-1.0-2.7","662f798279ec5f7604eaaaa0","","","","","","null","<img class=right_person src='images/persons/person3.jpg'><img class=product src='images/products/necklace.jpg'><div class=""fixation"">+</div>","null","","","exp","show_product1","7","","","3","","","","","","","","","","",""
"html-keyboard-response","132","460563","0.0-9.0-1.0-3.7","662f798279ec5f7604eaaaa0","","","","","","null","<img class=right_person src='images/persons/person3.jpg'><img class=reward src='images/one_coin.png'><img class=product src='images/products/necklace.jpg'>","null","","","exp","show_reward1","7","","","3","1","","","","","","","","","",""
"html-keyboard-response","133","461314","0.0-9.0-1.0-4.7","662f798279ec5f7604eaaaa0","","","","","","null","<img class=right_person src='images/persons/person3.jpg'><div class=""fixation"">+</div>","null","","","exp","show_choice","7","1","2","","","","","","","","","","","",""
"html-keyboard-response","134","462077","0.0-9.0-1.0-5.7","662f798279ec5f7604eaaaa0","","","","","","null","<img class=right_person src='images/persons/person3.jpg'><img class=product src='images/products/cake.jpg'><div class=""fixation"">+</div>","null","","","exp","show_product2","7","","","3","","","","","","","","","","",""
"html-keyboard-response","135","463086","0.0-9.0-1.0-6.7","662f798279ec5f7604eaaaa0","","","","","","null","<img class=right_person src='images/persons/person3.jpg'><img class=reward src='images/zero_coins.png'><img class=product src='images/products/cake.jpg'>","null","","","exp","show_reward2","7","1","2","3","1","2","0","3","2","0.245022227773897","0.371993541432001","0.214409674510406","0.830436522745017","0.243224610157488","0"
"html-keyboard-response","136","464537","0.0-9.0-1.0-0.8","662f798279ec5f7604eaaaa0","","","","","","1295","<img class=left_person src='images/persons/person1.jpg'><img class=right_person src='images/persons/person5.jpg'><div class=""fixation"">+</div>","s","","","exp","choice","8","","","","","","","","","","","","","",""
"html-keyboard-response","137","465302","0.0-9.0-1.0-1.8","662f798279ec5f7604eaaaa0","","","","","","null","<img class=left_person src='images/persons/person1.jpg'><div class=""fixation"">+</div>","null","","","exp","show_choice","8","0","0","","","","","","","","","","","",""
"html-keyboard-response","138","466069","0.0-9.0-1.0-2.8","662f798279ec5f7604eaaaa0","","","","","","null","<img class=left_person src='images/persons/person1.jpg'><img class=product src='images/products/bicycle.jpg'><div class=""fixation"">+</div>","null","","","exp","show_product1","8","","","0","","","","","","","","","","",""
"html-keyboard-response","139","467079","0.0-9.0-1.0-3.8","662f798279ec5f7604eaaaa0","","","","","","null","<img class=left_person src='images/persons/person1.jpg'><img class=reward src='images/zero_coins.png'><img class=product src='images/products/bicycle.jpg'>","null","","","exp","show_reward1","8","","","0","0","","","","","","","","","",""
"html-keyboard-response","140","467845","0.0-9.0-1.0-4.8","662f798279ec5f7604eaaaa0","","","","","","null","<img class=left_person src='images/persons/person1.jpg'><div class=""fixation"">+</div>","null","","","exp","show_choice","8","0","0","","","","","","","","","","","",""
"html-keyboard-response","141","468607","0.0-9.0-1.0-5.8","662f798279ec5f7604eaaaa0","","","","","","null","<img class=left_person src='images/persons/person1.jpg'><img class=product src='images/products/book.jpg'><div class=""fixation"">+</div>","null","","","exp","show_product2","8","","","0","","","","","","","","","","",""
"html-keyboard-response","142","469616","0.0-9.0-1.0-6.8","662f798279ec5f7604eaaaa0","","","","","","null","<img class=left_person src='images/persons/person1.jpg'><img class=reward src='images/one_coin.png'><img class=product src='images/products/book.jpg'>","null","","","exp","show_reward2","8","0","0","0","0","1","1","0","4","0.302539254497075","0.365493297937961","0.272517986272295","0.818952403273637","0.234966176998085","0"
"html-keyboard-response","143","472857","0.0-9.0-1.0-0.9","662f798279ec5f7604eaaaa0","","","","","","3089","<img class=left_person src='images/persons/person4.jpg'><img class=right_person src='images/persons/person5.jpg'><div class=""fixation"">+</div>","k","","","exp","choice","9","","","","","","","","","","","","","",""
"html-keyboard-response","144","473622","0.0-9.0-1.0-1.9","662f798279ec5f7604eaaaa0","","","","","","null","<img class=right_person src='images/persons/person5.jpg'><div class=""fixation"">+</div>","null","","","exp","show_choice","9","1","4","","","","","","","","","","","",""
"html-keyboard-response","145","474382","0.0-9.0-1.0-2.9","662f798279ec5f7604eaaaa0","","","","","","null","<img class=right_person src='images/persons/person5.jpg'><img class=product src='images/products/printer.jpg'><div class=""fixation"">+</div>","null","","","exp","show_product1","9","","","4","","","","","","","","","","",""
"html-keyboard-response","146","475395","0.0-9.0-1.0-3.9","662f798279ec5f7604eaaaa0","","","","","","null","<img class=right_person src='images/persons/person5.jpg'><img class=reward src='images/one_coin.png'><img class=product src='images/products/printer.jpg'>","null","","","exp","show_reward1","9","","","4","1","","","","","","","","","",""
"html-keyboard-response","147","476163","0.0-9.0-1.0-4.9","662f798279ec5f7604eaaaa0","","","","","","null","<img class=right_person src='images/persons/person5.jpg'><div class=""fixation"">+</div>","null","","","exp","show_choice","9","1","4","","","","","","","","","","","",""
"html-keyboard-response","148","476926","0.0-9.0-1.0-5.9","662f798279ec5f7604eaaaa0","","","","","","null","<img class=right_person src='images/persons/person5.jpg'><img class=product src='images/products/bicycle.jpg'><div class=""fixation"">+</div>","null","","","exp","show_product2","9","","","4","","","","","","","","","","",""
"html-keyboard-response","149","477936","0.0-9.0-1.0-6.9","662f798279ec5f7604eaaaa0","","","","","","null","<img class=right_person src='images/persons/person5.jpg'><img class=reward src='images/zero_coins.png'><img class=product src='images/products/bicycle.jpg'>","null","","","exp","show_reward2","9","1","4","4","1","0","0","3","4","0.334137363915563","0.370530282572065","0.282808647943239","0.85","0.207505740975236","0"
"html-keyboard-response","150","479308","0.0-9.0-1.0-0.10","662f798279ec5f7604eaaaa0","","","","","","1216","<img class=left_person src='images/persons/person4.jpg'><img class=right_person src='images/persons/person5.jpg'><div class=""fixation"">+</div>","s","","","exp","choice","10","","","","","","","","","","","","","",""
"html-keyboard-response","151","480073","0.0-9.0-1.0-1.10","662f798279ec5f7604eaaaa0","","","","","","null","<img class=left_person src='images/persons/person4.jpg'><div class=""fixation"">+</div>","null","","","exp","show_choice","10","0","3","","","","","","","","","","","",""
"html-keyboard-response","152","480839","0.0-9.0-1.0-2.10","662f798279ec5f7604eaaaa0","","","","","","null","<img class=left_person src='images/persons/person4.jpg'><img class=product src='images/products/necklace.jpg'><div class=""fixation"">+</div>","null","","","exp","show_product1","10","","","3","","","","","","","","","","",""
"html-keyboard-response","153","481854","0.0-9.0-1.0-3.10","662f798279ec5f7604eaaaa0","","","","","","null","<img class=left_person src='images/persons/person4.jpg'><img class=reward src='images/one_coin.png'><img class=product src='images/products/necklace.jpg'>","null","","","exp","show_reward1","10","","","3","1","","","","","","","","","",""
"html-keyboard-response","154","482617","0.0-9.0-1.0-4.10","662f798279ec5f7604eaaaa0","","","","","","null","<img class=left_person src='images/persons/person4.jpg'><div class=""fixation"">+</div>","null","","","exp","show_choice","10","0","3","","","","","","","","","","","",""
"html-keyboard-response","155","483384","0.0-9.0-1.0-5.10","662f798279ec5f7604eaaaa0","","","","","","null","<img class=left_person src='images/persons/person4.jpg'><img class=product src='images/products/printer.jpg'><div class=""fixation"">+</div>","null","","","exp","show_product2","10","","","3","","","","","","","","","","",""
"html-keyboard-response","156","484397","0.0-9.0-1.0-6.10","662f798279ec5f7604eaaaa0","","","","","","null","<img class=left_person src='images/persons/person4.jpg'><img class=reward src='images/zero_coins.png'><img class=product src='images/products/printer.jpg'>","null","","","exp","show_reward2","10","0","3","3","1","4","0","3","4","0.344057608363764","0.376167084022124","0.260837058332753","0.85","0.163428158918966","0"
"html-keyboard-response","157","487038","0.0-9.0-1.0-0.11","662f798279ec5f7604eaaaa0","","","","","","2484","<img class=left_person src='images/persons/person1.jpg'><img class=right_person src='images/persons/person2.jpg'><div class=""fixation"">+</div>","k","","","exp","choice","11","","","","","","","","","","","","","",""
"html-keyboard-response","158","487795","0.0-9.0-1.0-1.11","662f798279ec5f7604eaaaa0","","","","","","null","<img class=right_person src='images/persons/person2.jpg'><div class=""fixation"">+</div>","null","","","exp","show_choice","11","1","1","","","","","","","","","","","",""
"html-keyboard-response","159","488560","0.0-9.0-1.0-2.11","662f798279ec5f7604eaaaa0","","","","","","null","<img class=right_person src='images/persons/person2.jpg'><img class=product src='images/products/cake.jpg'><div class=""fixation"">+</div>","null","","","exp","show_product1","11","","","2","","","","","","","","","","",""
"html-keyboard-response","160","489574","0.0-9.0-1.0-3.11","662f798279ec5f7604eaaaa0","","","","","","null","<img class=right_person src='images/persons/person2.jpg'><img class=reward src='images/zero_coins.png'><img class=product src='images/products/cake.jpg'>","null","","","exp","show_reward1","11","","","2","0","","","","","","","","","",""
"html-keyboard-response","161","490326","0.0-9.0-1.0-4.11","662f798279ec5f7604eaaaa0","","","","","","null","<img class=right_person src='images/persons/person2.jpg'><div class=""fixation"">+</div>","null","","","exp","show_choice","11","1","1","","","","","","","","","","","",""
"html-keyboard-response","162","491091","0.0-9.0-1.0-5.11","662f798279ec5f7604eaaaa0","","","","","","null","<img class=right_person src='images/persons/person2.jpg'><img class=product src='images/products/book.jpg'><div class=""fixation"">+</div>","null","","","exp","show_product2","11","","","2","","","","","","","","","","",""
"html-keyboard-response","163","492104","0.0-9.0-1.0-6.11","662f798279ec5f7604eaaaa0","","","","","","null","<img class=right_person src='images/persons/person2.jpg'><img class=reward src='images/zero_coins.png'><img class=product src='images/products/book.jpg'>","null","","","exp","show_reward2","11","1","1","2","0","1","0","0","1","0.318197204346714","0.408405507855242","0.282233246431526","0.835421718663637","0.15","0"
"html-keyboard-response","164","493800","0.0-9.0-1.0-0.12","662f798279ec5f7604eaaaa0","","","","","","1540","<img class=left_person src='images/persons/person4.jpg'><img class=right_person src='images/persons/person3.jpg'><div class=""fixation"">+</div>","s","","","exp","choice","12","","","","","","","","","","","","","",""
"html-keyboard-response","165","494557","0.0-9.0-1.0-1.12","662f798279ec5f7604eaaaa0","","","","","","null","<img class=left_person src='images/persons/person4.jpg'><div class=""fixation"">+</div>","null","","","exp","show_choice","12","0","3","","","","","","","","","","","",""
"html-keyboard-response","166","495317","0.0-9.0-1.0-2.12","662f798279ec5f7604eaaaa0","","","","","","null","<img class=left_person src='images/persons/person4.jpg'><img class=product src='images/products/necklace.jpg'><div class=""fixation"">+</div>","null","","","exp","show_product1","12","","","3","","","","","","","","","","",""
"html-keyboard-response","167","496323","0.0-9.0-1.0-3.12","662f798279ec5f7604eaaaa0","","","","","","null","<img class=left_person src='images/persons/person4.jpg'><img class=reward src='images/one_coin.png'><img class=product src='images/products/necklace.jpg'>","null","","","exp","show_reward1","12","","","3","1","","","","","","","","","",""
"html-keyboard-response","168","497084","0.0-9.0-1.0-4.12","662f798279ec5f7604eaaaa0","","","","","","null","<img class=left_person src='images/persons/person4.jpg'><div class=""fixation"">+</div>","null","","","exp","show_choice","12","0","3","","","","","","","","","","","",""
"html-keyboard-response","169","497848","0.0-9.0-1.0-5.12","662f798279ec5f7604eaaaa0","","","","","","null","<img class=left_person src='images/persons/person4.jpg'><img class=product src='images/products/printer.jpg'><div class=""fixation"">+</div>","null","","","exp","show_product2","12","","","3","","","","","","","","","","",""
"html-keyboard-response","170","498864","0.0-9.0-1.0-6.12","662f798279ec5f7604eaaaa0","","","","","","null","<img class=left_person src='images/persons/person4.jpg'><img class=reward src='images/one_coin.png'><img class=product src='images/products/printer.jpg'>","null","","","exp","show_reward2","12","0","3","3","1","4","1","3","2","0.340816589652993","0.424850037529314","0.284449162126977","0.844611768677533","0.15","0"
"html-keyboard-response","171","501939","0.0-9.0-1.0-0.13","662f798279ec5f7604eaaaa0","","","","","","2917","<img class=left_person src='images/persons/person1.jpg'><img class=right_person src='images/persons/person5.jpg'><div class=""fixation"">+</div>","s","","","exp","choice","13","","","","","","","","","","","","","",""
"html-keyboard-response","172","502696","0.0-9.0-1.0-1.13","662f798279ec5f7604eaaaa0","","","","","","null","<img class=left_person src='images/persons/person1.jpg'><div class=""fixation"">+</div>","null","","","exp","show_choice","13","0","0","","","","","","","","","","","",""
"html-keyboard-response","173","503464","0.0-9.0-1.0-2.13","662f798279ec5f7604eaaaa0","","","","","","null","<img class=left_person src='images/persons/person1.jpg'><img class=product src='images/products/book.jpg'><div class=""fixation"">+</div>","null","","","exp","show_product1","13","","","1","","","","","","","","","","",""
"html-keyboard-response","174","504476","0.0-9.0-1.0-3.13","662f798279ec5f7604eaaaa0","","","","","","null","<img class=left_person src='images/persons/person1.jpg'><img class=reward src='images/zero_coins.png'><img class=product src='images/products/book.jpg'>","null","","","exp","show_reward1","13","","","1","0","","","","","","","","","",""
"html-keyboard-response","175","505228","0.0-9.0-1.0-4.13","662f798279ec5f7604eaaaa0","","","","","","null","<img class=left_person src='images/persons/person1.jpg'><div class=""fixation"">+</div>","null","","","exp","show_choice","13","0","0","","","","","","","","","","","",""
"html-keyboard-response","176","505980","0.0-9.0-1.0-5.13","662f798279ec5f7604eaaaa0","","","","","","null","<img class=left_person src='images/persons/person1.jpg'><img class=product src='images/products/bicycle.jpg'><div class=""fixation"">+</div>","null","","","exp","show_product2","13","","","1","","","","","","","","","","",""
"html-keyboard-response","177","506987","0.0-9.0-1.0-6.13","662f798279ec5f7604eaaaa0","","","","","","null","<img class=left_person src='images/persons/person1.jpg'><img class=reward src='images/zero_coins.png'><img class=product src='images/products/bicycle.jpg'>","null","","","exp","show_reward2","13","0","0","1","0","0","0","0","4","0.351742037715428","0.421528161074109","0.244676057939866","0.84834346184689","0.15","0"
"html-keyboard-response","178","509435","0.0-9.0-1.0-0.14","662f798279ec5f7604eaaaa0","","","","","","2288","<img class=left_person src='images/persons/person2.jpg'><img class=right_person src='images/persons/person3.jpg'><div class=""fixation"">+</div>","k","","","exp","choice","14","","","","","","","","","","","","","",""
"html-keyboard-response","179","510189","0.0-9.0-1.0-1.14","662f798279ec5f7604eaaaa0","","","","","","null","<img class=right_person src='images/persons/person3.jpg'><div class=""fixation"">+</div>","null","","","exp","show_choice","14","1","2","","","","","","","","","","","",""
"html-keyboard-response","180","510954","0.0-9.0-1.0-2.14","662f798279ec5f7604eaaaa0","","","","","","null","<img class=right_person src='images/persons/person3.jpg'><img class=product src='images/products/necklace.jpg'><div class=""fixation"">+</div>","null","","","exp","show_product1","14","","","3","","","","","","","","","","",""
"html-keyboard-response","181","511968","0.0-9.0-1.0-3.14","662f798279ec5f7604eaaaa0","","","","","","null","<img class=right_person src='images/persons/person3.jpg'><img class=reward src='images/one_coin.png'><img class=product src='images/products/necklace.jpg'>","null","","","exp","show_reward1","14","","","3","1","","","","","","","","","",""
"html-keyboard-response","182","512720","0.0-9.0-1.0-4.14","662f798279ec5f7604eaaaa0","","","","","","null","<img class=right_person src='images/persons/person3.jpg'><div class=""fixation"">+</div>","null","","","exp","show_choice","14","1","2","","","","","","","","","","","",""
"html-keyboard-response","183","513484","0.0-9.0-1.0-5.14","662f798279ec5f7604eaaaa0","","","","","","null","<img class=right_person src='images/persons/person3.jpg'><img class=product src='images/products/cake.jpg'><div class=""fixation"">+</div>","null","","","exp","show_product2","14","","","3","","","","","","","","","","",""
"html-keyboard-response","184","514500","0.0-9.0-1.0-6.14","662f798279ec5f7604eaaaa0","","","","","","null","<img class=right_person src='images/persons/person3.jpg'><img class=reward src='images/zero_coins.png'><img class=product src='images/products/cake.jpg'>","null","","","exp","show_reward2","14","1","2","3","1","2","0","1","2","0.316330458048535","0.460545280722732","0.24742040169269","0.847039692979381","0.15","0"
"html-keyboard-response","185","517373","0.0-9.0-1.0-0.15","662f798279ec5f7604eaaaa0","","","","","","2717","<img class=left_person src='images/persons/person5.jpg'><img class=right_person src='images/persons/person1.jpg'><div class=""fixation"">+</div>","k","","","exp","choice","15","","","","","","","","","","","","","",""
"html-keyboard-response","186","518129","0.0-9.0-1.0-1.15","662f798279ec5f7604eaaaa0","","","","","","null","<img class=right_person src='images/persons/person1.jpg'><div class=""fixation"">+</div>","null","","","exp","show_choice","15","1","0","","","","","","","","","","","",""
"html-keyboard-response","187","518892","0.0-9.0-1.0-2.15","662f798279ec5f7604eaaaa0","","","","","","null","<img class=right_person src='images/persons/person1.jpg'><img class=product src='images/products/book.jpg'><div class=""fixation"">+</div>","null","","","exp","show_product1","15","","","1","","","","","","","","","","",""
"html-keyboard-response","188","519908","0.0-9.0-1.0-3.15","662f798279ec5f7604eaaaa0","","","","","","null","<img class=right_person src='images/persons/person1.jpg'><img class=reward src='images/one_coin.png'><img class=product src='images/products/book.jpg'>","null","","","exp","show_reward1","15","","","1","1","","","","","","","","","",""
"html-keyboard-response","189","520672","0.0-9.0-1.0-4.15","662f798279ec5f7604eaaaa0","","","","","","null","<img class=right_person src='images/persons/person1.jpg'><div class=""fixation"">+</div>","null","","","exp","show_choice","15","1","0","","","","","","","","","","","",""
"html-keyboard-response","190","521432","0.0-9.0-1.0-5.15","662f798279ec5f7604eaaaa0","","","","","","null","<img class=right_person src='images/persons/person1.jpg'><img class=product src='images/products/bicycle.jpg'><div class=""fixation"">+</div>","null","","","exp","show_product2","15","","","1","","","","","","","","","","",""
"html-keyboard-response","191","522444","0.0-9.0-1.0-6.15","662f798279ec5f7604eaaaa0","","","","","","null","<img class=right_person src='images/persons/person1.jpg'><img class=reward src='images/zero_coins.png'><img class=product src='images/products/bicycle.jpg'>","null","","","exp","show_reward2","15","1","0","1","1","0","0","4","0","0.289434255039706","0.455296390833561","0.292889081673277","0.815205327895876","0.15","0"
"html-keyboard-response","192","524178","0.0-9.0-1.0-0.16","662f798279ec5f7604eaaaa0","","","","","","1577","<img class=left_person src='images/persons/person1.jpg'><img class=right_person src='images/persons/person5.jpg'><div class=""fixation"">+</div>","s","","","exp","choice","16","","","","","","","","","","","","","",""
"html-keyboard-response","193","524936","0.0-9.0-1.0-1.16","662f798279ec5f7604eaaaa0","","","","","","null","<img class=left_person src='images/persons/person1.jpg'><div class=""fixation"">+</div>","null","","","exp","show_choice","16","0","0","","","","","","","","","","","",""
"html-keyboard-response","194","525703","0.0-9.0-1.0-2.16","662f798279ec5f7604eaaaa0","","","","","","null","<img class=left_person src='images/persons/person1.jpg'><img class=product src='images/products/book.jpg'><div class=""fixation"">+</div>","null","","","exp","show_product1","16","","","1","","","","","","","","","","",""
"html-keyboard-response","195","526714","0.0-9.0-1.0-3.16","662f798279ec5f7604eaaaa0","","","","","","null","<img class=left_person src='images/persons/person1.jpg'><img class=reward src='images/one_coin.png'><img class=product src='images/products/book.jpg'>","null","","","exp","show_reward1","16","","","1","1","","","","","","","","","",""
"html-keyboard-response","196","527479","0.0-9.0-1.0-4.16","662f798279ec5f7604eaaaa0","","","","","","null","<img class=left_person src='images/persons/person1.jpg'><div class=""fixation"">+</div>","null","","","exp","show_choice","16","0","0","","","","","","","","","","","",""
"html-keyboard-response","197","528232","0.0-9.0-1.0-5.16","662f798279ec5f7604eaaaa0","","","","","","null","<img class=left_person src='images/persons/person1.jpg'><img class=product src='images/products/bicycle.jpg'><div class=""fixation"">+</div>","null","","","exp","show_product2","16","","","1","","","","","","","","","","",""
"html-keyboard-response","198","529238","0.0-9.0-1.0-6.16","662f798279ec5f7604eaaaa0","","","","","","null","<img class=left_person src='images/persons/person1.jpg'><img class=reward src='images/one_coin.png'><img class=product src='images/products/bicycle.jpg'>","null","","","exp","show_reward2","16","0","0","1","1","0","1","0","4","0.325173420638148","0.475147781692021","0.30783473455715","0.786962427597247","0.215884665165148","0"
"html-keyboard-response","199","530693","0.0-9.0-1.0-0.17","662f798279ec5f7604eaaaa0","","","","","","1298","<img class=left_person src='images/persons/person4.jpg'><img class=right_person src='images/persons/person5.jpg'><div class=""fixation"">+</div>","k","","","exp","choice","17","","","","","","","","","","","","","",""
"html-keyboard-response","200","531453","0.0-9.0-1.0-1.17","662f798279ec5f7604eaaaa0","","","","","","null","<img class=right_person src='images/persons/person5.jpg'><div class=""fixation"">+</div>","null","","","exp","show_choice","17","1","4","","","","","","","","","","","",""
"html-keyboard-response","201","532215","0.0-9.0-1.0-2.17","662f798279ec5f7604eaaaa0","","","","","","null","<img class=right_person src='images/persons/person5.jpg'><img class=product src='images/products/printer.jpg'><div class=""fixation"">+</div>","null","","","exp","show_product1","17","","","4","","","","","","","","","","",""
"html-keyboard-response","202","533231","0.0-9.0-1.0-3.17","662f798279ec5f7604eaaaa0","","","","","","null","<img class=right_person src='images/persons/person5.jpg'><img class=reward src='images/zero_coins.png'><img class=product src='images/products/printer.jpg'>","null","","","exp","show_reward1","17","","","4","0","","","","","","","","","",""
"html-keyboard-response","203","533995","0.0-9.0-1.0-4.17","662f798279ec5f7604eaaaa0","","","","","","null","<img class=right_person src='images/persons/person5.jpg'><div class=""fixation"">+</div>","null","","","exp","show_choice","17","1","4","","","","","","","","","","","",""
"html-keyboard-response","204","534758","0.0-9.0-1.0-5.17","662f798279ec5f7604eaaaa0","","","","","","null","<img class=right_person src='images/persons/person5.jpg'><img class=product src='images/products/bicycle.jpg'><div class=""fixation"">+</div>","null","","","exp","show_product2","17","","","4","","","","","","","","","","",""
"html-keyboard-response","205","535772","0.0-9.0-1.0-6.17","662f798279ec5f7604eaaaa0","","","","","","null","<img class=right_person src='images/persons/person5.jpg'><img class=reward src='images/one_coin.png'><img class=product src='images/products/bicycle.jpg'>","null","","","exp","show_reward2","17","1","4","4","0","0","1","3","4","0.277012376133618","0.416525736235663","0.3255685682564","0.800140842281835","0.15","0"
"html-keyboard-response","206","537769","0.0-9.0-1.0-0.18","662f798279ec5f7604eaaaa0","","","","","","1840","<img class=left_person src='images/persons/person4.jpg'><img class=right_person src='images/persons/person5.jpg'><div class=""fixation"">+</div>","s","","","exp","choice","18","","","","","","","","","","","","","",""
"html-keyboard-response","207","538526","0.0-9.0-1.0-1.18","662f798279ec5f7604eaaaa0","","","","","","null","<img class=left_person src='images/persons/person4.jpg'><div class=""fixation"">+</div>","null","","","exp","show_choice","18","0","3","","","","","","","","","","","",""
"html-keyboard-response","208","539287","0.0-9.0-1.0-2.18","662f798279ec5f7604eaaaa0","","","","","","null","<img class=left_person src='images/persons/person4.jpg'><img class=product src='images/products/necklace.jpg'><div class=""fixation"">+</div>","null","","","exp","show_product1","18","","","3","","","","","","","","","","",""
"html-keyboard-response","209","540300","0.0-9.0-1.0-3.18","662f798279ec5f7604eaaaa0","","","","","","null","<img class=left_person src='images/persons/person4.jpg'><img class=reward src='images/one_coin.png'><img class=product src='images/products/necklace.jpg'>","null","","","exp","show_reward1","18","","","3","1","","","","","","","","","",""
"html-keyboard-response","210","541063","0.0-9.0-1.0-4.18","662f798279ec5f7604eaaaa0","","","","","","null","<img class=left_person src='images/persons/person4.jpg'><div class=""fixation"">+</div>","null","","","exp","show_choice","18","0","3","","","","","","","","","","","",""
"html-keyboard-response","211","541826","0.0-9.0-1.0-5.18","662f798279ec5f7604eaaaa0","","","","","","null","<img class=left_person src='images/persons/person4.jpg'><img class=product src='images/products/printer.jpg'><div class=""fixation"">+</div>","null","","","exp","show_product2","18","","","3","","","","","","","","","","",""
"html-keyboard-response","212","542841","0.0-9.0-1.0-6.18","662f798279ec5f7604eaaaa0","","","","","","null","<img class=left_person src='images/persons/person4.jpg'><img class=reward src='images/zero_coins.png'><img class=product src='images/products/printer.jpg'>","null","","","exp","show_reward2","18","0","3","3","1","4","0","3","4","0.267092483408783","0.401569924522585","0.298693240777537","0.810146467798569","0.150911955299929","0"
"html-keyboard-response","213","544862","0.0-9.0-1.0-0.19","662f798279ec5f7604eaaaa0","","","","","","1864","<img class=left_person src='images/persons/person1.jpg'><img class=right_person src='images/persons/person5.jpg'><div class=""fixation"">+</div>","s","","","exp","choice","19","","","","","","","","","","","","","",""
"html-keyboard-response","214","545622","0.0-9.0-1.0-1.19","662f798279ec5f7604eaaaa0","","","","","","null","<img class=left_person src='images/persons/person1.jpg'><div class=""fixation"">+</div>","null","","","exp","show_choice","19","0","0","","","","","","","","","","","",""
"html-keyboard-response","215","546382","0.0-9.0-1.0-2.19","662f798279ec5f7604eaaaa0","","","","","","null","<img class=left_person src='images/persons/person1.jpg'><img class=product src='images/products/bicycle.jpg'><div class=""fixation"">+</div>","null","","","exp","show_product1","19","","","0","","","","","","","","","","",""
"html-keyboard-response","216","547398","0.0-9.0-1.0-3.19","662f798279ec5f7604eaaaa0","","","","","","null","<img class=left_person src='images/persons/person1.jpg'><img class=reward src='images/zero_coins.png'><img class=product src='images/products/bicycle.jpg'>","null","","","exp","show_reward1","19","","","0","0","","","","","","","","","",""
"html-keyboard-response","217","548163","0.0-9.0-1.0-4.19","662f798279ec5f7604eaaaa0","","","","","","null","<img class=left_person src='images/persons/person1.jpg'><div class=""fixation"">+</div>","null","","","exp","show_choice","19","0","0","","","","","","","","","","","",""
"html-keyboard-response","218","548924","0.0-9.0-1.0-5.19","662f798279ec5f7604eaaaa0","","","","","","null","<img class=left_person src='images/persons/person1.jpg'><img class=product src='images/products/book.jpg'><div class=""fixation"">+</div>","null","","","exp","show_product2","19","","","0","","","","","","","","","","",""
"html-keyboard-response","219","549936","0.0-9.0-1.0-6.19","662f798279ec5f7604eaaaa0","","","","","","null","<img class=left_person src='images/persons/person1.jpg'><img class=reward src='images/zero_coins.png'><img class=product src='images/products/book.jpg'>","null","","","exp","show_reward2","19","0","0","0","0","1","0","0","4","0.24157766891671","0.378325479463357","0.316710409320766","0.828680944090513","0.15","0"
"html-keyboard-response","220","552014","0.0-9.0-1.0-0.20","662f798279ec5f7604eaaaa0","","","","","","1921","<img class=left_person src='images/persons/person5.jpg'><img class=right_person src='images/persons/person4.jpg'><div class=""fixation"">+</div>","s","","","exp","choice","20","","","","","","","","","","","","","",""
"html-keyboard-response","221","552779","0.0-9.0-1.0-1.20","662f798279ec5f7604eaaaa0","","","","","","null","<img class=left_person src='images/persons/person5.jpg'><div class=""fixation"">+</div>","null","","","exp","show_choice","20","0","4","","","","","","","","","","","",""
"html-keyboard-response","222","553542","0.0-9.0-1.0-2.20","662f798279ec5f7604eaaaa0","","","","","","null","<img class=left_person src='images/persons/person5.jpg'><img class=product src='images/products/bicycle.jpg'><div class=""fixation"">+</div>","null","","","exp","show_product1","20","","","0","","","","","","","","","","",""
"html-keyboard-response","223","554559","0.0-9.0-1.0-3.20","662f798279ec5f7604eaaaa0","","","","","","null","<img class=left_person src='images/persons/person5.jpg'><img class=reward src='images/zero_coins.png'><img class=product src='images/products/bicycle.jpg'>","null","","","exp","show_reward1","20","","","0","0","","","","","","","","","",""
"html-keyboard-response","224","555324","0.0-9.0-1.0-4.20","662f798279ec5f7604eaaaa0","","","","","","null","<img class=left_person src='images/persons/person5.jpg'><div class=""fixation"">+</div>","null","","","exp","show_choice","20","0","4","","","","","","","","","","","",""
"html-keyboard-response","225","556084","0.0-9.0-1.0-5.20","662f798279ec5f7604eaaaa0","","","","","","null","<img class=left_person src='images/persons/person5.jpg'><img class=product src='images/products/printer.jpg'><div class=""fixation"">+</div>","null","","","exp","show_product2","20","","","0","","","","","","","","","","",""
"html-keyboard-response","226","557103","0.0-9.0-1.0-6.20","662f798279ec5f7604eaaaa0","","","","","","null","<img class=left_person src='images/persons/person5.jpg'><img class=reward src='images/zero_coins.png'><img class=product src='images/products/printer.jpg'>","null","","","exp","show_reward2","20","0","4","0","0","4","0","4","3","0.24714271065827","0.401910564029195","0.295710642883366","0.796957569007589","0.164862580572664","0"
"html-keyboard-response","227","559207","0.0-9.0-1.0-0.21","662f798279ec5f7604eaaaa0","","","","","","1949","<img class=left_person src='images/persons/person4.jpg'><img class=right_person src='images/persons/person3.jpg'><div class=""fixation"">+</div>","s","","","exp","choice","21","","","","","","","","","","","","","",""
"html-keyboard-response","228","559967","0.0-9.0-1.0-1.21","662f798279ec5f7604eaaaa0","","","","","","null","<img class=left_person src='images/persons/person4.jpg'><div class=""fixation"">+</div>","null","","","exp","show_choice","21","0","3","","","","","","","","","","","",""
"html-keyboard-response","229","560730","0.0-9.0-1.0-2.21","662f798279ec5f7604eaaaa0","","","","","","null","<img class=left_person src='images/persons/person4.jpg'><img class=product src='images/products/necklace.jpg'><div class=""fixation"">+</div>","null","","","exp","show_product1","21","","","3","","","","","","","","","","",""
"html-keyboard-response","230","561745","0.0-9.0-1.0-3.21","662f798279ec5f7604eaaaa0","","","","","","null","<img class=left_person src='images/persons/person4.jpg'><img class=reward src='images/one_coin.png'><img class=product src='images/products/necklace.jpg'>","null","","","exp","show_reward1","21","","","3","1","","","","","","","","","",""
"html-keyboard-response","231","562497","0.0-9.0-1.0-4.21","662f798279ec5f7604eaaaa0","","","","","","null","<img class=left_person src='images/persons/person4.jpg'><div class=""fixation"">+</div>","null","","","exp","show_choice","21","0","3","","","","","","","","","","","",""
"html-keyboard-response","232","563258","0.0-9.0-1.0-5.21","662f798279ec5f7604eaaaa0","","","","","","null","<img class=left_person src='images/persons/person4.jpg'><img class=product src='images/products/printer.jpg'><div class=""fixation"">+</div>","null","","","exp","show_product2","21","","","3","","","","","","","","","","",""
"html-keyboard-response","233","564270","0.0-9.0-1.0-6.21","662f798279ec5f7604eaaaa0","","","","","","null","<img class=left_person src='images/persons/person4.jpg'><img class=reward src='images/zero_coins.png'><img class=product src='images/products/printer.jpg'>","null","","","exp","show_reward2","21","0","3","3","1","4","0","3","2","0.249869553866331","0.345718414170977","0.285702448610508","0.778958858495414","0.153200536930631","0"
"html-keyboard-response","234","566816","0.0-9.0-1.0-0.22","662f798279ec5f7604eaaaa0","","","","","","2389","<img class=left_person src='images/persons/person5.jpg'><img class=right_person src='images/persons/person1.jpg'><div class=""fixation"">+</div>","s","","","exp","choice","22","","","","","","","","","","","","","",""
"html-keyboard-response","235","567574","0.0-9.0-1.0-1.22","662f798279ec5f7604eaaaa0","","","","","","null","<img class=left_person src='images/persons/person5.jpg'><div class=""fixation"">+</div>","null","","","exp","show_choice","22","0","4","","","","","","","","","","","",""
"html-keyboard-response","236","568335","0.0-9.0-1.0-2.22","662f798279ec5f7604eaaaa0","","","","","","null","<img class=left_person src='images/persons/person5.jpg'><img class=product src='images/products/printer.jpg'><div class=""fixation"">+</div>","null","","","exp","show_product1","22","","","4","","","","","","","","","","",""
"html-keyboard-response","237","569344","0.0-9.0-1.0-3.22","662f798279ec5f7604eaaaa0","","","","","","null","<img class=left_person src='images/persons/person5.jpg'><img class=reward src='images/zero_coins.png'><img class=product src='images/products/printer.jpg'>","null","","","exp","show_reward1","22","","","4","0","","","","","","","","","",""
"html-keyboard-response","238","570099","0.0-9.0-1.0-4.22","662f798279ec5f7604eaaaa0","","","","","","null","<img class=left_person src='images/persons/person5.jpg'><div class=""fixation"">+</div>","null","","","exp","show_choice","22","0","4","","","","","","","","","","","",""
"html-keyboard-response","239","570864","0.0-9.0-1.0-5.22","662f798279ec5f7604eaaaa0","","","","","","null","<img class=left_person src='images/persons/person5.jpg'><img class=product src='images/products/bicycle.jpg'><div class=""fixation"">+</div>","null","","","exp","show_product2","22","","","4","","","","","","","","","","",""
"html-keyboard-response","240","571878","0.0-9.0-1.0-6.22","662f798279ec5f7604eaaaa0","","","","","","null","<img class=left_person src='images/persons/person5.jpg'><img class=reward src='images/zero_coins.png'><img class=product src='images/products/bicycle.jpg'>","null","","","exp","show_reward2","22","0","4","4","0","0","0","4","0","0.244860947247307","0.317876912283693","0.286538786002641","0.816391955285859","0.177450604231071","0"
"html-keyboard-response","241","574014","0.0-9.0-1.0-0.23","662f798279ec5f7604eaaaa0","","","","","","1979","<img class=left_person src='images/persons/person3.jpg'><img class=right_person src='images/persons/person4.jpg'><div class=""fixation"">+</div>","s","","","exp","choice","23","","","","","","","","","","","","","",""
"html-keyboard-response","242","574782","0.0-9.0-1.0-1.23","662f798279ec5f7604eaaaa0","","","","","","null","<img class=left_person src='images/persons/person3.jpg'><div class=""fixation"">+</div>","null","","","exp","show_choice","23","0","2","","","","","","","","","","","",""
"html-keyboard-response","243","575549","0.0-9.0-1.0-2.23","662f798279ec5f7604eaaaa0","","","","","","null","<img class=left_person src='images/persons/person3.jpg'><img class=product src='images/products/necklace.jpg'><div class=""fixation"">+</div>","null","","","exp","show_product1","23","","","3","","","","","","","","","","",""
"html-keyboard-response","244","576565","0.0-9.0-1.0-3.23","662f798279ec5f7604eaaaa0","","","","","","null","<img class=left_person src='images/persons/person3.jpg'><img class=reward src='images/one_coin.png'><img class=product src='images/products/necklace.jpg'>","null","","","exp","show_reward1","23","","","3","1","","","","","","","","","",""
"html-keyboard-response","245","577319","0.0-9.0-1.0-4.23","662f798279ec5f7604eaaaa0","","","","","","null","<img class=left_person src='images/persons/person3.jpg'><div class=""fixation"">+</div>","null","","","exp","show_choice","23","0","2","","","","","","","","","","","",""
"html-keyboard-response","246","578083","0.0-9.0-1.0-5.23","662f798279ec5f7604eaaaa0","","","","","","null","<img class=left_person src='images/persons/person3.jpg'><img class=product src='images/products/cake.jpg'><div class=""fixation"">+</div>","null","","","exp","show_product2","23","","","3","","","","","","","","","","",""
"html-keyboard-response","247","579093","0.0-9.0-1.0-6.23","662f798279ec5f7604eaaaa0","","","","","","null","<img class=left_person src='images/persons/person3.jpg'><img class=reward src='images/zero_coins.png'><img class=product src='images/products/cake.jpg'>","null","","","exp","show_reward2","23","0","2","3","1","2","0","2","3","0.195542686694281","0.314159746506156","0.279675425369382","0.805165559867479","0.188059704249955","0"
"html-keyboard-response","248","581881","0.0-9.0-1.0-0.24","662f798279ec5f7604eaaaa0","","","","","","2628","<img class=left_person src='images/persons/person1.jpg'><img class=right_person src='images/persons/person5.jpg'><div class=""fixation"">+</div>","s","","","exp","choice","24","","","","","","","","","","","","","",""
"html-keyboard-response","249","582641","0.0-9.0-1.0-1.24","662f798279ec5f7604eaaaa0","","","","","","null","<img class=left_person src='images/persons/person1.jpg'><div class=""fixation"">+</div>","null","","","exp","show_choice","24","0","0","","","","","","","","","","","",""
"html-keyboard-response","250","583404","0.0-9.0-1.0-2.24","662f798279ec5f7604eaaaa0","","","","","","null","<img class=left_person src='images/persons/person1.jpg'><img class=product src='images/products/book.jpg'><div class=""fixation"">+</div>","null","","","exp","show_product1","24","","","1","","","","","","","","","","",""
"html-keyboard-response","251","584420","0.0-9.0-1.0-3.24","662f798279ec5f7604eaaaa0","","","","","","null","<img class=left_person src='images/persons/person1.jpg'><img class=reward src='images/one_coin.png'><img class=product src='images/products/book.jpg'>","null","","","exp","show_reward1","24","","","1","1","","","","","","","","","",""
"html-keyboard-response","252","585181","0.0-9.0-1.0-4.24","662f798279ec5f7604eaaaa0","","","","","","null","<img class=left_person src='images/persons/person1.jpg'><div class=""fixation"">+</div>","null","","","exp","show_choice","24","0","0","","","","","","","","","","","",""
"html-keyboard-response","253","585933","0.0-9.0-1.0-5.24","662f798279ec5f7604eaaaa0","","","","","","null","<img class=left_person src='images/persons/person1.jpg'><img class=product src='images/products/bicycle.jpg'><div class=""fixation"">+</div>","null","","","exp","show_product2","24","","","1","","","","","","","","","","",""
"html-keyboard-response","254","586949","0.0-9.0-1.0-6.24","662f798279ec5f7604eaaaa0","","","","","","null","<img class=left_person src='images/persons/person1.jpg'><img class=reward src='images/one_coin.png'><img class=product src='images/products/bicycle.jpg'>","null","","","exp","show_reward2","24","0","0","1","1","0","1","0","4","0.207701276452671","0.236904490535797","0.301414231645848","0.79911957887982","0.205300299339789","0"
"html-keyboard-response","255","588189","0.0-9.0-1.0-0.25","662f798279ec5f7604eaaaa0","","","","","","1087","<img class=left_person src='images/persons/person1.jpg'><img class=right_person src='images/persons/person5.jpg'><div class=""fixation"">+</div>","s","","","exp","choice","25","","","","","","","","","","","","","",""
"html-keyboard-response","256","588942","0.0-9.0-1.0-1.25","662f798279ec5f7604eaaaa0","","","","","","null","<img class=left_person src='images/persons/person1.jpg'><div class=""fixation"">+</div>","null","","","exp","show_choice","25","0","0","","","","","","","","","","","",""
"html-keyboard-response","257","589702","0.0-9.0-1.0-2.25","662f798279ec5f7604eaaaa0","","","","","","null","<img class=left_person src='images/persons/person1.jpg'><img class=product src='images/products/bicycle.jpg'><div class=""fixation"">+</div>","null","","","exp","show_product1","25","","","0","","","","","","","","","","",""
"html-keyboard-response","258","590716","0.0-9.0-1.0-3.25","662f798279ec5f7604eaaaa0","","","","","","null","<img class=left_person src='images/persons/person1.jpg'><img class=reward src='images/one_coin.png'><img class=product src='images/products/bicycle.jpg'>","null","","","exp","show_reward1","25","","","0","1","","","","","","","","","",""
"html-keyboard-response","259","591470","0.0-9.0-1.0-4.25","662f798279ec5f7604eaaaa0","","","","","","null","<img class=left_person src='images/persons/person1.jpg'><div class=""fixation"">+</div>","null","","","exp","show_choice","25","0","0","","","","","","","","","","","",""
"html-keyboard-response","260","592229","0.0-9.0-1.0-5.25","662f798279ec5f7604eaaaa0","","","","","","null","<img class=left_person src='images/persons/person1.jpg'><img class=product src='images/products/book.jpg'><div class=""fixation"">+</div>","null","","","exp","show_product2","25","","","0","","","","","","","","","","",""
"html-keyboard-response","261","593240","0.0-9.0-1.0-6.25","662f798279ec5f7604eaaaa0","","","","","","null","<img class=left_person src='images/persons/person1.jpg'><img class=reward src='images/one_coin.png'><img class=product src='images/products/book.jpg'>","null","","","exp","show_reward2","25","0","0","0","1","1","1","0","4","0.2159864259515","0.221402384639541","0.293171180470813","0.818717132865506","0.249268318918408","0"
"html-keyboard-response","262","596902","0.0-9.0-1.0-0.26","662f798279ec5f7604eaaaa0","","","","","","3505","<img class=left_person src='images/persons/person5.jpg'><img class=right_person src='images/persons/person4.jpg'><div class=""fixation"">+</div>","s","","","exp","choice","26","","","","","","","","","","","","","",""
"html-keyboard-response","263","597662","0.0-9.0-1.0-1.26","662f798279ec5f7604eaaaa0","","","","","","null","<img class=left_person src='images/persons/person5.jpg'><div class=""fixation"">+</div>","null","","","exp","show_choice","26","0","4","","","","","","","","","","","",""
"html-keyboard-response","264","598424","0.0-9.0-1.0-2.26","662f798279ec5f7604eaaaa0","","","","","","null","<img class=left_person src='images/persons/person5.jpg'><img class=product src='images/products/printer.jpg'><div class=""fixation"">+</div>","null","","","exp","show_product1","26","","","4","","","","","","","","","","",""
"html-keyboard-response","265","599435","0.0-9.0-1.0-3.26","662f798279ec5f7604eaaaa0","","","","","","null","<img class=left_person src='images/persons/person5.jpg'><img class=reward src='images/zero_coins.png'><img class=product src='images/products/printer.jpg'>","null","","","exp","show_reward1","26","","","4","0","","","","","","","","","",""
"html-keyboard-response","266","600199","0.0-9.0-1.0-4.26","662f798279ec5f7604eaaaa0","","","","","","null","<img class=left_person src='images/persons/person5.jpg'><div class=""fixation"">+</div>","null","","","exp","show_choice","26","0","4","","","","","","","","","","","",""
"html-keyboard-response","267","600963","0.0-9.0-1.0-5.26","662f798279ec5f7604eaaaa0","","","","","","null","<img class=left_person src='images/persons/person5.jpg'><img class=product src='images/products/bicycle.jpg'><div class=""fixation"">+</div>","null","","","exp","show_product2","26","","","4","","","","","","","","","","",""
"html-keyboard-response","268","601973","0.0-9.0-1.0-6.26","662f798279ec5f7604eaaaa0","","","","","","null","<img class=left_person src='images/persons/person5.jpg'><img class=reward src='images/zero_coins.png'><img class=product src='images/products/bicycle.jpg'>","null","","","exp","show_reward2","26","0","4","4","0","0","0","4","3","0.191029451798468","0.260786532087955","0.321045982162179","0.782377768010874","0.274895926167849","0"
"html-keyboard-response","269","604282","0.0-9.0-1.0-0.27","662f798279ec5f7604eaaaa0","","","","","","2152","<img class=left_person src='images/persons/person4.jpg'><img class=right_person src='images/persons/person3.jpg'><div class=""fixation"">+</div>","s","","","exp","choice","27","","","","","","","","","","","","","",""
"html-keyboard-response","270","605039","0.0-9.0-1.0-1.27","662f798279ec5f7604eaaaa0","","","","","","null","<img class=left_person src='images/persons/person4.jpg'><div class=""fixation"">+</div>","null","","","exp","show_choice","27","0","3","","","","","","","","","","","",""
"html-keyboard-response","271","605803","0.0-9.0-1.0-2.27","662f798279ec5f7604eaaaa0","","","","","","null","<img class=left_person src='images/persons/person4.jpg'><img class=product src='images/products/printer.jpg'><div class=""fixation"">+</div>","null","","","exp","show_product1","27","","","4","","","","","","","","","","",""
"html-keyboard-response","272","606813","0.0-9.0-1.0-3.27","662f798279ec5f7604eaaaa0","","","","","","null","<img class=left_person src='images/persons/person4.jpg'><img class=reward src='images/zero_coins.png'><img class=product src='images/products/printer.jpg'>","null","","","exp","show_reward1","27","","","4","0","","","","","","","","","",""
"html-keyboard-response","273","607578","0.0-9.0-1.0-4.27","662f798279ec5f7604eaaaa0","","","","","","null","<img class=left_person src='images/persons/person4.jpg'><div class=""fixation"">+</div>","null","","","exp","show_choice","27","0","3","","","","","","","","","","","",""
"html-keyboard-response","274","608344","0.0-9.0-1.0-5.27","662f798279ec5f7604eaaaa0","","","","","","null","<img class=left_person src='images/persons/person4.jpg'><img class=product src='images/products/necklace.jpg'><div class=""fixation"">+</div>","null","","","exp","show_product2","27","","","4","","","","","","","","","","",""
"html-keyboard-response","275","609360","0.0-9.0-1.0-6.27","662f798279ec5f7604eaaaa0","","","","","","null","<img class=left_person src='images/persons/person4.jpg'><img class=reward src='images/one_coin.png'><img class=product src='images/products/necklace.jpg'>","null","","","exp","show_reward2","27","0","3","4","0","3","1","3","2","0.204160175810004","0.279435646416368","0.326821825944158","0.800589261719891","0.255438100155521","0"
"html-keyboard-response","276","612196","0.0-9.0-1.0-0.28","662f798279ec5f7604eaaaa0","","","","","","2681","<img class=left_person src='images/persons/person5.jpg'><img class=right_person src='images/persons/person4.jpg'><div class=""fixation"">+</div>","k","","","exp","choice","28","","","","","","","","","","","","","",""
"html-keyboard-response","277","612963","0.0-9.0-1.0-1.28","662f798279ec5f7604eaaaa0","","","","","","null","<img class=right_person src='images/persons/person4.jpg'><div class=""fixation"">+</div>","null","","","exp","show_choice","28","1","3","","","","","","","","","","","",""
"html-keyboard-response","278","613725","0.0-9.0-1.0-2.28","662f798279ec5f7604eaaaa0","","","","","","null","<img class=right_person src='images/persons/person4.jpg'><img class=product src='images/products/necklace.jpg'><div class=""fixation"">+</div>","null","","","exp","show_product1","28","","","3","","","","","","","","","","",""
"html-keyboard-response","279","614738","0.0-9.0-1.0-3.28","662f798279ec5f7604eaaaa0","","","","","","null","<img class=right_person src='images/persons/person4.jpg'><img class=reward src='images/one_coin.png'><img class=product src='images/products/necklace.jpg'>","null","","","exp","show_reward1","28","","","3","1","","","","","","","","","",""
"html-keyboard-response","280","615498","0.0-9.0-1.0-4.28","662f798279ec5f7604eaaaa0","","","","","","null","<img class=right_person src='images/persons/person4.jpg'><div class=""fixation"">+</div>","null","","","exp","show_choice","28","1","3","","","","","","","","","","","",""
"html-keyboard-response","281","616261","0.0-9.0-1.0-5.28","662f798279ec5f7604eaaaa0","","","","","","null","<img class=right_person src='images/persons/person4.jpg'><img class=product src='images/products/printer.jpg'><div class=""fixation"">+</div>","null","","","exp","show_product2","28","","","3","","","","","","","","","","",""
"html-keyboard-response","282","617271","0.0-9.0-1.0-6.28","662f798279ec5f7604eaaaa0","","","","","","null","<img class=right_person src='images/persons/person4.jpg'><img class=reward src='images/one_coin.png'><img class=product src='images/products/printer.jpg'>","null","","","exp","show_reward2","28","1","3","3","1","4","1","4","3","0.214103769135423","0.258380662033127","0.31058308837626","0.79496582327025","0.239063090883422","0"
"html-keyboard-response","283","619108","0.0-9.0-1.0-0.29","662f798279ec5f7604eaaaa0","","","","","","1681","<img class=left_person src='images/persons/person2.jpg'><img class=right_person src='images/persons/person3.jpg'><div class=""fixation"">+</div>","s","","","exp","choice","29","","","","","","","","","","","","","",""
"html-keyboard-response","284","619862","0.0-9.0-1.0-1.29","662f798279ec5f7604eaaaa0","","","","","","null","<img class=left_person src='images/persons/person2.jpg'><div class=""fixation"">+</div>","null","","","exp","show_choice","29","0","1","","","","","","","","","","","",""
"html-keyboard-response","285","620624","0.0-9.0-1.0-2.29","662f798279ec5f7604eaaaa0","","","","","","null","<img class=left_person src='images/persons/person2.jpg'><img class=product src='images/products/book.jpg'><div class=""fixation"">+</div>","null","","","exp","show_product1","29","","","1","","","","","","","","","","",""
"html-keyboard-response","286","621636","0.0-9.0-1.0-3.29","662f798279ec5f7604eaaaa0","","","","","","null","<img class=left_person src='images/persons/person2.jpg'><img class=reward src='images/zero_coins.png'><img class=product src='images/products/book.jpg'>","null","","","exp","show_reward1","29","","","1","0","","","","","","","","","",""
"html-keyboard-response","287","622401","0.0-9.0-1.0-4.29","662f798279ec5f7604eaaaa0","","","","","","null","<img class=left_person src='images/persons/person2.jpg'><div class=""fixation"">+</div>","null","","","exp","show_choice","29","0","1","","","","","","","","","","","",""
"html-keyboard-response","288","623154","0.0-9.0-1.0-5.29","662f798279ec5f7604eaaaa0","","","","","","null","<img class=left_person src='images/persons/person2.jpg'><img class=product src='images/products/cake.jpg'><div class=""fixation"">+</div>","null","","","exp","show_product2","29","","","1","","","","","","","","","","",""
"html-keyboard-response","289","624164","0.0-9.0-1.0-6.29","662f798279ec5f7604eaaaa0","","","","","","null","<img class=left_person src='images/persons/person2.jpg'><img class=reward src='images/zero_coins.png'><img class=product src='images/products/cake.jpg'>","null","","","exp","show_reward2","29","0","1","1","0","2","0","1","2","0.152198777187837","0.23859545988254","0.349074875478763","0.793966821218178","0.218691793391814","0"
"html-keyboard-response","290","625397","0.0-9.0-1.0-0.30","662f798279ec5f7604eaaaa0","","","","","","1075","<img class=left_person src='images/persons/person1.jpg'><img class=right_person src='images/persons/person2.jpg'><div class=""fixation"">+</div>","s","","","exp","choice","30","","","","","","","","","","","","","",""
"html-keyboard-response","291","626154","0.0-9.0-1.0-1.30","662f798279ec5f7604eaaaa0","","","","","","null","<img class=left_person src='images/persons/person1.jpg'><div class=""fixation"">+</div>","null","","","exp","show_choice","30","0","0","","","","","","","","","","","",""
"html-keyboard-response","292","626918","0.0-9.0-1.0-2.30","662f798279ec5f7604eaaaa0","","","","","","null","<img class=left_person src='images/persons/person1.jpg'><img class=product src='images/products/bicycle.jpg'><div class=""fixation"">+</div>","null","","","exp","show_product1","30","","","0","","","","","","","","","","",""
"html-keyboard-response","293","627929","0.0-9.0-1.0-3.30","662f798279ec5f7604eaaaa0","","","","","","null","<img class=left_person src='images/persons/person1.jpg'><img class=reward src='images/zero_coins.png'><img class=product src='images/products/bicycle.jpg'>","null","","","exp","show_reward1","30","","","0","0","","","","","","","","","",""
"html-keyboard-response","294","628697","0.0-9.0-1.0-4.30","662f798279ec5f7604eaaaa0","","","","","","null","<img class=left_person src='images/persons/person1.jpg'><div class=""fixation"">+</div>","null","","","exp","show_choice","30","0","0","","","","","","","","","","","",""
"html-keyboard-response","295","629463","0.0-9.0-1.0-5.30","662f798279ec5f7604eaaaa0","","","","","","null","<img class=left_person src='images/persons/person1.jpg'><img class=product src='images/products/book.jpg'><div class=""fixation"">+</div>","null","","","exp","show_product2","30","","","0","","","","","","","","","","",""
"html-keyboard-response","296","630472","0.0-9.0-1.0-6.30","662f798279ec5f7604eaaaa0","","","","","","null","<img class=left_person src='images/persons/person1.jpg'><img class=reward src='images/zero_coins.png'><img class=product src='images/products/book.jpg'>","null","","","exp","show_reward2","30","0","0","0","0","1","0","0","1","0.185953745951542","0.194980100369782","0.38646502428989","0.815494707076813","0.276230682751335","0"
