"trial_type","trial_index","time_elapsed","internal_node_id","subject_id","rt","stimulus","response","success","timeout","failed_images","failed_audio","failed_video","view_history","choice","is_correct","counterbalance","phase","trial_name","trial_num","correct_response","counter_correct","counter_errors"
"pavlovia","0","1023","0.0-0.0","5c519ec789254700019f7934","","","","","","","","","","","","","","","","","",""
"html-button-response","1","47940","0.0-1.0","5c519ec789254700019f7934","46895","<h2><b>Consent to participate in a research:</b></h2><p style='text-align: left;'><strong>Greetings and thank you for your willingness to participate in this research.</strong> This study aims to examine learning mechanisms. Specifically, it seeks to improve and strengthen the diagnosis and treatment of mental disorders in the future. Hence, your participation is highly valued and contributes significantly.</p><p style='text-align: left;'>For your participation, you will receive monetary compensation. Additionally, you could win a cash bonus based on your performance (details will be provided soon). Finally, at the end of the experiment, we would appreciate discussing the research questions further and sharing the results with you.</p><p style='text-align: left;'><b>Participation Criteria:</b></p><p style='text-align: left;'>The experiment is intended for young adults aged <strong>18 to 50</strong>. You cannot participate if you regularly use psychiatric or neurological medications, have a psychiatric/neurological diagnosis (including attention deficit hyperactivity disorder - ADHD), a history of head injuries, epilepsy, learning disabilities, or color blindness.</p><p style='text-align: left;'><b>Procedure:</b></p><p style='text-align: left;'>The study will be conducted online using your computer at home. During the experiment, we will track your learning patterns through a simple computer game. The game will take place in four separate sessions. The sessions should be completed in four consecutive days. <b><u>IMPORTANT: PAYMENT WILL BE GIVEN ONLY AFTER FINISHING ALL PARTS OF THE TASK</u></b> It means you will be paid only after completing day 4. The game will display images on the screen, and you will make choices during the game to maximize profits according to rules explained during the experiment itself. The whole experiment is expected to take about 90 minutes. Upon completion of participation, compensation will be provided as agreed, and we will offer a full debriefing regarding the research goals and hypotheses.</p><p style='text-align: left;'><b>Expected Risks and Termination of the Experiment:</b></p><p style='text-align: left;'>The expected risks and discomforts in this study are minimal and include potential discomfort during the performance of the computer task. You have the right to withdraw from the experiment at any stage. In case of withdrawal, partial compensation will be provided based on the duration of your participation.</p><p style='text-align: left;'><b>Compensation for Participation:</b></p><p style='text-align: left;'>For completing the experiment, money payment will be given. <b><u>IMPORTANT: PAYMENT WILL BE GIVEN ONLY AFTER FINISHING ALL PARTS OF THE TASK</u></b> It means you will be paid only after completing all parts. In addition a cash bonus will be awarded based on performance in the task. Throughout the task, you can collect points (gold coins). At the end of the task, the number of points you have accumulated will be calculated. The amount of points depends on your ability to perform the experiment well, similar to scoring in a computer game. </p><p style='text-align: left;'><b>Anonymity and Data Protection:</b></p><p style='text-align: left;'>The information collected during the experiment will be kept solely on the lab computers and will be linked only to your PROLIFIC ID.</p>","1","","","","","","","","","","","","","","",""
"html-button-response","2","53258","0.0-2.0","5c519ec789254700019f7934","5300","<h2><b>Consent to participate in a research:</b></h2><p><strong>You will be paid only after participating in each of the 4 days (including today).</p>","1","","","","","","","","","","","","","","",""
"html-keyboard-response","3","54890","0.0-3.0","5c519ec789254700019f7934","1618","Welcome to the experiment. We will start by asking you a short question and then move on. <br><br><b>Press any key to begin</b>"," ","","","","","","","","","","","","","","",""
"survey-text","4","71517","0.0-4.0","5c519ec789254700019f7934","16580","","{""Q0"":""Cat are not loyal dogs are ""}","","","","","","","","","","","","","","",""
"preload","5","86080","0.0-5.0","5c519ec789254700019f7934","","","","true","false","[]","[]","[]","","","","","","","","","",""
"fullscreen","6","89191","0.0-6.0","5c519ec789254700019f7934","","","","true","","","","","","","","","","","","","",""
"instructions","7","203345","0.0-7.0","5c519ec789254700019f7934","114151","","","","","","","","[{""page_index"":0,""viewing_time"":4141},{""page_index"":1,""viewing_time"":9857},{""page_index"":2,""viewing_time"":4866},{""page_index"":3,""viewing_time"":5550},{""page_index"":4,""viewing_time"":6116},{""page_index"":5,""viewing_time"":11424},{""page_index"":6,""viewing_time"":5655},{""page_index"":7,""viewing_time"":10380},{""page_index"":8,""viewing_time"":9738},{""page_index"":9,""viewing_time"":11891},{""page_index"":10,""viewing_time"":10841},{""page_index"":11,""viewing_time"":6404},{""page_index"":12,""viewing_time"":4769},{""page_index"":13,""viewing_time"":5631},{""page_index"":14,""viewing_time"":2835},{""page_index"":15,""viewing_time"":4048}]","","","","","","","","",""
"html-button-response","8","205597","0.0-8.0-0.0","5c519ec789254700019f7934","","","","","","","","","","3","true","0","","","","","",""
"html-keyboard-response","9","206606","0.0-8.0-1.0","5c519ec789254700019f7934","null","<b>Correct!</b>","null","","","","","","","","","","model_learning","click_correct","0","","",""
"html-button-response","10","208301","0.0-8.1-0.1","5c519ec789254700019f7934","","","","","","","","","","2","true","0","","","","","",""
"html-keyboard-response","11","209314","0.0-8.1-1.1","5c519ec789254700019f7934","null","<b>Correct!</b>","null","","","","","","","","","","model_learning","click_correct","0","","",""
"html-button-response","12","211130","0.0-8.2-0.2","5c519ec789254700019f7934","","","","","","","","","","3","true","0","","","","","",""
"html-keyboard-response","13","212138","0.0-8.2-1.2","5c519ec789254700019f7934","null","<b>Correct!</b>","null","","","","","","","","","","model_learning","click_correct","0","","",""
"html-button-response","14","213319","0.0-8.3-0.3","5c519ec789254700019f7934","","","","","","","","","","2","true","0","","","","","",""
"html-keyboard-response","15","214332","0.0-8.3-1.3","5c519ec789254700019f7934","null","<b>Correct!</b>","null","","","","","","","","","","model_learning","click_correct","0","","",""
"html-button-response","16","222262","0.0-8.4-0.4","5c519ec789254700019f7934","","","","","","","","","","3","true","0","","","","","",""
"html-keyboard-response","17","223274","0.0-8.4-1.4","5c519ec789254700019f7934","null","<b>Correct!</b>","null","","","","","","","","","","model_learning","click_correct","0","","",""
"html-button-response","18","226418","0.0-8.5-0.5","5c519ec789254700019f7934","","","","","","","","","","4","true","0","","","","","",""
"html-keyboard-response","19","227432","0.0-8.5-1.5","5c519ec789254700019f7934","null","<b>Correct!</b>","null","","","","","","","","","","model_learning","click_correct","0","","",""
"html-button-response","20","230771","0.0-8.6-0.6","5c519ec789254700019f7934","","","","","","","","","","3","true","0","","","","","",""
"html-keyboard-response","21","231786","0.0-8.6-1.6","5c519ec789254700019f7934","null","<b>Correct!</b>","null","","","","","","","","","","model_learning","click_correct","0","","",""
"html-button-response","22","232961","0.0-8.7-0.7","5c519ec789254700019f7934","","","","","","","","","","4","true","0","","","","","",""
"html-keyboard-response","23","233970","0.0-8.7-1.7","5c519ec789254700019f7934","null","<b>Correct!</b>","null","","","","","","","","","","model_learning","click_correct","0","","",""
"html-button-response","24","237731","0.0-8.8-0.8","5c519ec789254700019f7934","","","","","","","","","","2","true","0","","","","","",""
"html-keyboard-response","25","238735","0.0-8.8-1.8","5c519ec789254700019f7934","null","<b>Correct!</b>","null","","","","","","","","","","model_learning","click_correct","0","","",""
"html-button-response","26","239560","0.0-8.9-0.9","5c519ec789254700019f7934","","","","","","","","","","1","true","0","","","","","",""
"html-keyboard-response","27","240573","0.0-8.9-1.9","5c519ec789254700019f7934","null","<b>Correct!</b>","null","","","","","","","","","","model_learning","click_correct","0","","",""
"html-button-response","28","244838","0.0-8.10-0.10","5c519ec789254700019f7934","","","","","","","","","","2","true","0","","","","","",""
"html-keyboard-response","29","245850","0.0-8.10-1.10","5c519ec789254700019f7934","null","<b>Correct!</b>","null","","","","","","","","","","model_learning","click_correct","0","","",""
"html-button-response","30","247726","0.0-8.11-0.11","5c519ec789254700019f7934","","","","","","","","","","1","true","0","","","","","",""
"html-keyboard-response","31","248729","0.0-8.11-1.11","5c519ec789254700019f7934","null","<b>Correct!</b>","null","","","","","","","","","","model_learning","click_correct","0","","",""
"html-button-response","32","252590","0.0-8.12-0.12","5c519ec789254700019f7934","","","","","","","","","","0","true","0","","","","","",""
"html-keyboard-response","33","253596","0.0-8.12-1.12","5c519ec789254700019f7934","null","<b>Correct!</b>","null","","","","","","","","","","model_learning","click_correct","0","","",""
"html-button-response","34","255006","0.0-8.13-0.13","5c519ec789254700019f7934","","","","","","","","","","4","true","0","","","","","",""
"html-keyboard-response","35","256020","0.0-8.13-1.13","5c519ec789254700019f7934","null","<b>Correct!</b>","null","","","","","","","","","","model_learning","click_correct","0","","",""
"html-button-response","36","258196","0.0-8.14-0.14","5c519ec789254700019f7934","","","","","","","","","","0","true","0","","","","","",""
"html-keyboard-response","37","259199","0.0-8.14-1.14","5c519ec789254700019f7934","null","<b>Correct!</b>","null","","","","","","","","","","model_learning","click_correct","0","","",""
"html-button-response","38","260813","0.0-8.15-0.15","5c519ec789254700019f7934","","","","","","","","","","4","true","0","","","","","",""
"html-keyboard-response","39","261816","0.0-8.15-1.15","5c519ec789254700019f7934","null","<b>Correct!</b>","null","","","","","","","","","","model_learning","click_correct","0","","",""
"html-button-response","40","266643","0.0-8.16-0.16","5c519ec789254700019f7934","","","","","","","","","","1","true","0","","","","","",""
"html-keyboard-response","41","267650","0.0-8.16-1.16","5c519ec789254700019f7934","null","<b>Correct!</b>","null","","","","","","","","","","model_learning","click_correct","0","","",""
"html-button-response","42","269397","0.0-8.17-0.17","5c519ec789254700019f7934","","","","","","","","","","0","true","0","","","","","",""
"html-keyboard-response","43","270399","0.0-8.17-1.17","5c519ec789254700019f7934","null","<b>Correct!</b>","null","","","","","","","","","","model_learning","click_correct","0","","",""
"html-button-response","44","272198","0.0-8.18-0.18","5c519ec789254700019f7934","","","","","","","","","","1","true","0","","","","","",""
"html-keyboard-response","45","273213","0.0-8.18-1.18","5c519ec789254700019f7934","null","<b>Correct!</b>","null","","","","","","","","","","model_learning","click_correct","0","","",""
"html-button-response","46","274654","0.0-8.19-0.19","5c519ec789254700019f7934","","","","","","","","","","0","true","0","","","","","",""
"html-keyboard-response","47","275666","0.0-8.19-1.19","5c519ec789254700019f7934","null","<b>Correct!</b>","null","","","","","","","","","","model_learning","click_correct","0","","",""
"instructions","48","298354","0.0-9.0","5c519ec789254700019f7934","22678","","","","","","","","[{""page_index"":0,""viewing_time"":2446},{""page_index"":1,""viewing_time"":5231},{""page_index"":2,""viewing_time"":9734},{""page_index"":3,""viewing_time"":3380},{""page_index"":4,""viewing_time"":1885}]","","","","","","","","",""
"instructions","49","310813","0.0-10.0","5c519ec789254700019f7934","12444","","","","","","","","[{""page_index"":0,""viewing_time"":1987},{""page_index"":1,""viewing_time"":2776},{""page_index"":2,""viewing_time"":1994},{""page_index"":3,""viewing_time"":1626},{""page_index"":4,""viewing_time"":1669},{""page_index"":5,""viewing_time"":2393}]","","","","","","","","",""
"html-keyboard-response","50","314393","0.0-11.0","5c519ec789254700019f7934","3569","<p> <br> Please be ready with your fingers on <b>s</b> and <b>k</b><br><br> <img class=keyboard src='images/examples/keyboard.png'> <br><br> <b> Press any key to begin</b></div>"," ","","","","","","","","","","","","","","",""
"html-keyboard-response","51","317718","0.0-12.0-0.0","5c519ec789254700019f7934","2305","<img class=one_person src='images/persons/person3.jpg'><img class=product_right src='images/products/cake.jpg'><img class=product_left src='images/products/book.jpg'><div class=""fixation"">+</div>","k","","","","","","","","","","model_learning","learning_choice","0","1","",""
"html-keyboard-response","52","319227","0.0-12.0-1.0","5c519ec789254700019f7934","null","<img class=one_person src='images/persons/person3.jpg'><img class=product_right src='images/products/cake.jpg'><div class=""fixation"">Correct! you have 1 correct answers</div>","null","","","","","","","","","","model_learning","learning_result","0","","1","0"
"html-keyboard-response","53","320365","0.0-12.1-0.1","5c519ec789254700019f7934","926","<img class=one_person src='images/persons/person3.jpg'><img class=product_right src='images/products/necklace.jpg'><img class=product_left src='images/products/printer.jpg'><div class=""fixation"">+</div>","s","","","","","","","","","","model_learning","learning_choice","1","1","",""
"html-keyboard-response","54","321874","0.0-12.1-1.1","5c519ec789254700019f7934","null","<img class=one_person src='images/persons/person3.jpg'><img class=product_left src='images/products/printer.jpg'><div class=""fixation"">Incorrect</div>","null","","","","","","","","","","model_learning","learning_result","1","","1","1"
"html-keyboard-response","55","322983","0.0-12.2-0.2","5c519ec789254700019f7934","895","<img class=one_person src='images/persons/person3.jpg'><img class=product_left src='images/products/cake.jpg'><img class=product_right src='images/products/book.jpg'><div class=""fixation"">+</div>","s","","","","","","","","","","model_learning","learning_choice","2","0","",""
"html-keyboard-response","56","324488","0.0-12.2-1.2","5c519ec789254700019f7934","null","<img class=one_person src='images/persons/person3.jpg'><img class=product_left src='images/products/cake.jpg'><div class=""fixation"">Correct! you have 2 correct answers</div>","null","","","","","","","","","","model_learning","learning_result","2","","2","1"
"html-keyboard-response","57","326301","0.0-12.3-0.3","5c519ec789254700019f7934","1596","<img class=one_person src='images/persons/person3.jpg'><img class=product_right src='images/products/necklace.jpg'><img class=product_left src='images/products/book.jpg'><div class=""fixation"">+</div>","k","","","","","","","","","","model_learning","learning_choice","3","1","",""
"html-keyboard-response","58","327809","0.0-12.3-1.3","5c519ec789254700019f7934","null","<img class=one_person src='images/persons/person3.jpg'><img class=product_right src='images/products/necklace.jpg'><div class=""fixation"">Correct! you have 3 correct answers</div>","null","","","","","","","","","","model_learning","learning_result","3","","3","1"
"html-keyboard-response","59","329220","0.0-12.4-0.4","5c519ec789254700019f7934","1198","<img class=one_person src='images/persons/person3.jpg'><img class=product_right src='images/products/cake.jpg'><img class=product_left src='images/products/bicycle.jpg'><div class=""fixation"">+</div>","k","","","","","","","","","","model_learning","learning_choice","4","1","",""
"html-keyboard-response","60","330728","0.0-12.4-1.4","5c519ec789254700019f7934","null","<img class=one_person src='images/persons/person3.jpg'><img class=product_right src='images/products/cake.jpg'><div class=""fixation"">Correct! you have 4 correct answers</div>","null","","","","","","","","","","model_learning","learning_result","4","","4","1"
"html-keyboard-response","61","332602","0.0-12.5-0.5","5c519ec789254700019f7934","1664","<img class=one_person src='images/persons/person4.jpg'><img class=product_left src='images/products/printer.jpg'><img class=product_right src='images/products/book.jpg'><div class=""fixation"">+</div>","k","","","","","","","","","","model_learning","learning_choice","5","0","",""
"html-keyboard-response","62","334105","0.0-12.5-1.5","5c519ec789254700019f7934","null","<img class=one_person src='images/persons/person4.jpg'><img class=product_right src='images/products/book.jpg'><div class=""fixation"">Incorrect</div>","null","","","","","","","","","","model_learning","learning_result","5","","4","2"
"html-keyboard-response","63","336991","0.0-12.6-0.6","5c519ec789254700019f7934","2675","<img class=one_person src='images/persons/person4.jpg'><img class=product_right src='images/products/necklace.jpg'><img class=product_left src='images/products/bicycle.jpg'><div class=""fixation"">+</div>","s","","","","","","","","","","model_learning","learning_choice","6","1","",""
"html-keyboard-response","64","338504","0.0-12.6-1.6","5c519ec789254700019f7934","null","<img class=one_person src='images/persons/person4.jpg'><img class=product_left src='images/products/bicycle.jpg'><div class=""fixation"">Incorrect</div>","null","","","","","","","","","","model_learning","learning_result","6","","4","3"
"html-keyboard-response","65","339907","0.0-12.7-0.7","5c519ec789254700019f7934","1202","<img class=one_person src='images/persons/person4.jpg'><img class=product_right src='images/products/printer.jpg'><img class=product_left src='images/products/bicycle.jpg'><div class=""fixation"">+</div>","k","","","","","","","","","","model_learning","learning_choice","7","1","",""
"html-keyboard-response","66","341424","0.0-12.7-1.7","5c519ec789254700019f7934","null","<img class=one_person src='images/persons/person4.jpg'><img class=product_right src='images/products/printer.jpg'><div class=""fixation"">Correct! you have 5 correct answers</div>","null","","","","","","","","","","model_learning","learning_result","7","","5","3"
"html-keyboard-response","67","345148","0.0-12.8-0.8","5c519ec789254700019f7934","null","<img class=one_person src='images/persons/person4.jpg'><img class=product_left src='images/products/necklace.jpg'><img class=product_right src='images/products/bicycle.jpg'><div class=""fixation"">+</div>","null","","","","","","","","","","model_learning","learning_choice","8","0","",""
"html-keyboard-response","68","346657","0.0-12.8-1.8","5c519ec789254700019f7934","null","<div class=""fixation"">Too slow!</div>","null","","","","","","","","","","model_learning","learning_result","8","","5","4"
"html-keyboard-response","69","348278","0.0-12.9-0.9","5c519ec789254700019f7934","1408","<img class=one_person src='images/persons/person4.jpg'><img class=product_left src='images/products/printer.jpg'><img class=product_right src='images/products/cake.jpg'><div class=""fixation"">+</div>","s","","","","","","","","","","model_learning","learning_choice","9","0","",""
"html-keyboard-response","70","349793","0.0-12.9-1.9","5c519ec789254700019f7934","null","<img class=one_person src='images/persons/person4.jpg'><img class=product_left src='images/products/printer.jpg'><div class=""fixation"">Correct! you have 6 correct answers</div>","null","","","","","","","","","","model_learning","learning_result","9","","6","4"
"html-keyboard-response","71","350881","0.0-12.10-0.10","5c519ec789254700019f7934","878","<img class=one_person src='images/persons/person4.jpg'><img class=product_right src='images/products/necklace.jpg'><img class=product_left src='images/products/book.jpg'><div class=""fixation"">+</div>","k","","","","","","","","","","model_learning","learning_choice","10","1","",""
"html-keyboard-response","72","352398","0.0-12.10-1.10","5c519ec789254700019f7934","null","<img class=one_person src='images/persons/person4.jpg'><img class=product_right src='images/products/necklace.jpg'><div class=""fixation"">Correct! you have 7 correct answers</div>","null","","","","","","","","","","model_learning","learning_result","10","","7","4"
"html-keyboard-response","73","353599","0.0-12.11-0.11","5c519ec789254700019f7934","993","<img class=one_person src='images/persons/person4.jpg'><img class=product_left src='images/products/printer.jpg'><img class=product_right src='images/products/cake.jpg'><div class=""fixation"">+</div>","s","","","","","","","","","","model_learning","learning_choice","11","0","",""
"html-keyboard-response","74","355109","0.0-12.11-1.11","5c519ec789254700019f7934","null","<img class=one_person src='images/persons/person4.jpg'><img class=product_left src='images/products/printer.jpg'><div class=""fixation"">Correct! you have 8 correct answers</div>","null","","","","","","","","","","model_learning","learning_result","11","","8","4"
"html-keyboard-response","75","356473","0.0-12.12-0.12","5c519ec789254700019f7934","1151","<img class=one_person src='images/persons/person2.jpg'><img class=product_right src='images/products/book.jpg'><img class=product_left src='images/products/printer.jpg'><div class=""fixation"">+</div>","k","","","","","","","","","","model_learning","learning_choice","12","1","",""
"html-keyboard-response","76","357978","0.0-12.12-1.12","5c519ec789254700019f7934","null","<img class=one_person src='images/persons/person2.jpg'><img class=product_right src='images/products/book.jpg'><div class=""fixation"">Correct! you have 9 correct answers</div>","null","","","","","","","","","","model_learning","learning_result","12","","9","4"
"html-keyboard-response","77","359490","0.0-12.13-0.13","5c519ec789254700019f7934","1301","<img class=one_person src='images/persons/person2.jpg'><img class=product_left src='images/products/cake.jpg'><img class=product_right src='images/products/printer.jpg'><div class=""fixation"">+</div>","s","","","","","","","","","","model_learning","learning_choice","13","0","",""
"html-keyboard-response","78","360993","0.0-12.13-1.13","5c519ec789254700019f7934","null","<img class=one_person src='images/persons/person2.jpg'><img class=product_left src='images/products/cake.jpg'><div class=""fixation"">Correct! you have 10 correct answers</div>","null","","","","","","","","","","model_learning","learning_result","13","","10","4"
"html-keyboard-response","79","362263","0.0-12.14-0.14","5c519ec789254700019f7934","1061","<img class=one_person src='images/persons/person2.jpg'><img class=product_left src='images/products/book.jpg'><img class=product_right src='images/products/printer.jpg'><div class=""fixation"">+</div>","s","","","","","","","","","","model_learning","learning_choice","14","0","",""
"html-keyboard-response","80","363774","0.0-12.14-1.14","5c519ec789254700019f7934","null","<img class=one_person src='images/persons/person2.jpg'><img class=product_left src='images/products/book.jpg'><div class=""fixation"">Correct! you have 11 correct answers</div>","null","","","","","","","","","","model_learning","learning_result","14","","11","4"
"html-keyboard-response","81","364591","0.0-12.15-0.15","5c519ec789254700019f7934","601","<img class=one_person src='images/persons/person2.jpg'><img class=product_left src='images/products/cake.jpg'><img class=product_right src='images/products/necklace.jpg'><div class=""fixation"">+</div>","s","","","","","","","","","","model_learning","learning_choice","15","0","",""
"html-keyboard-response","82","366106","0.0-12.15-1.15","5c519ec789254700019f7934","null","<img class=one_person src='images/persons/person2.jpg'><img class=product_left src='images/products/cake.jpg'><div class=""fixation"">Correct! you have 12 correct answers</div>","null","","","","","","","","","","model_learning","learning_result","15","","12","4"
"html-keyboard-response","83","368458","0.0-12.16-0.16","5c519ec789254700019f7934","2136","<img class=one_person src='images/persons/person5.jpg'><img class=product_left src='images/products/printer.jpg'><img class=product_right src='images/products/necklace.jpg'><div class=""fixation"">+</div>","s","","","","","","","","","","model_learning","learning_choice","16","0","",""
"html-keyboard-response","84","369962","0.0-12.16-1.16","5c519ec789254700019f7934","null","<img class=one_person src='images/persons/person5.jpg'><img class=product_left src='images/products/printer.jpg'><div class=""fixation"">Correct! you have 13 correct answers</div>","null","","","","","","","","","","model_learning","learning_result","16","","13","4"
"html-keyboard-response","85","371256","0.0-12.17-0.17","5c519ec789254700019f7934","1083","<img class=one_person src='images/persons/person5.jpg'><img class=product_right src='images/products/bicycle.jpg'><img class=product_left src='images/products/book.jpg'><div class=""fixation"">+</div>","k","","","","","","","","","","model_learning","learning_choice","17","1","",""
"html-keyboard-response","86","372761","0.0-12.17-1.17","5c519ec789254700019f7934","null","<img class=one_person src='images/persons/person5.jpg'><img class=product_right src='images/products/bicycle.jpg'><div class=""fixation"">Correct! you have 14 correct answers</div>","null","","","","","","","","","","model_learning","learning_result","17","","14","4"
"html-keyboard-response","87","374200","0.0-12.18-0.18","5c519ec789254700019f7934","1228","<img class=one_person src='images/persons/person5.jpg'><img class=product_left src='images/products/printer.jpg'><img class=product_right src='images/products/cake.jpg'><div class=""fixation"">+</div>","s","","","","","","","","","","model_learning","learning_choice","18","0","",""
"html-keyboard-response","88","375705","0.0-12.18-1.18","5c519ec789254700019f7934","null","<img class=one_person src='images/persons/person5.jpg'><img class=product_left src='images/products/printer.jpg'><div class=""fixation"">Correct! you have 15 correct answers</div>","null","","","","","","","","","","model_learning","learning_result","18","","15","4"
"html-keyboard-response","89","376566","0.0-12.19-0.19","5c519ec789254700019f7934","648","<img class=one_person src='images/persons/person5.jpg'><img class=product_left src='images/products/bicycle.jpg'><img class=product_right src='images/products/necklace.jpg'><div class=""fixation"">+</div>","s","","","","","","","","","","model_learning","learning_choice","19","0","",""
"html-keyboard-response","90","378072","0.0-12.19-1.19","5c519ec789254700019f7934","null","<img class=one_person src='images/persons/person5.jpg'><img class=product_left src='images/products/bicycle.jpg'><div class=""fixation"">Correct! you have 16 correct answers</div>","null","","","","","","","","","","model_learning","learning_result","19","","16","4"
"html-keyboard-response","91","379462","0.0-12.20-0.20","5c519ec789254700019f7934","1179","<img class=one_person src='images/persons/person1.jpg'><img class=product_left src='images/products/bicycle.jpg'><img class=product_right src='images/products/necklace.jpg'><div class=""fixation"">+</div>","s","","","","","","","","","","model_learning","learning_choice","20","0","",""
"html-keyboard-response","92","380965","0.0-12.20-1.20","5c519ec789254700019f7934","null","<img class=one_person src='images/persons/person1.jpg'><img class=product_left src='images/products/bicycle.jpg'><div class=""fixation"">Correct! you have 17 correct answers</div>","null","","","","","","","","","","model_learning","learning_result","20","","17","4"
"html-keyboard-response","93","382247","0.0-12.21-0.21","5c519ec789254700019f7934","1079","<img class=one_person src='images/persons/person1.jpg'><img class=product_right src='images/products/book.jpg'><img class=product_left src='images/products/necklace.jpg'><div class=""fixation"">+</div>","k","","","","","","","","","","model_learning","learning_choice","21","1","",""
"html-keyboard-response","94","383756","0.0-12.21-1.21","5c519ec789254700019f7934","null","<img class=one_person src='images/persons/person1.jpg'><img class=product_right src='images/products/book.jpg'><div class=""fixation"">Correct! you have 18 correct answers</div>","null","","","","","","","","","","model_learning","learning_result","21","","18","4"
"html-keyboard-response","95","384905","0.0-12.22-0.22","5c519ec789254700019f7934","936","<img class=one_person src='images/persons/person1.jpg'><img class=product_right src='images/products/bicycle.jpg'><img class=product_left src='images/products/cake.jpg'><div class=""fixation"">+</div>","k","","","","","","","","","","model_learning","learning_choice","22","1","",""
"html-keyboard-response","96","386421","0.0-12.22-1.22","5c519ec789254700019f7934","null","<img class=one_person src='images/persons/person1.jpg'><img class=product_right src='images/products/bicycle.jpg'><div class=""fixation"">Correct! you have 19 correct answers</div>","null","","","","","","","","","","model_learning","learning_result","22","","19","4"
"html-keyboard-response","97","387237","0.0-12.23-0.23","5c519ec789254700019f7934","601","<img class=one_person src='images/persons/person1.jpg'><img class=product_left src='images/products/book.jpg'><img class=product_right src='images/products/printer.jpg'><div class=""fixation"">+</div>","s","","","","","","","","","","model_learning","learning_choice","23","0","",""
"html-keyboard-response","98","388748","0.0-12.23-1.23","5c519ec789254700019f7934","null","<img class=one_person src='images/persons/person1.jpg'><img class=product_left src='images/products/book.jpg'><div class=""fixation"">Correct! you have 20 correct answers</div>","null","","","","","","","","","","model_learning","learning_result","23","","20","4"
"instructions","99","431805","0.0-13.0","5c519ec789254700019f7934","42806","","","","","","","","[{""page_index"":0,""viewing_time"":2259},{""page_index"":1,""viewing_time"":11136},{""page_index"":2,""viewing_time"":10541},{""page_index"":3,""viewing_time"":16846},{""page_index"":4,""viewing_time"":2024}]","","","","","","","","",""
"instructions","100","444603","0.0-14.0","5c519ec789254700019f7934","12786","","","","","","","","[{""page_index"":0,""viewing_time"":2945},{""page_index"":1,""viewing_time"":3374},{""page_index"":2,""viewing_time"":1533},{""page_index"":3,""viewing_time"":1682},{""page_index"":4,""viewing_time"":1699},{""page_index"":5,""viewing_time"":1552}]","","","","","","","","",""
"html-keyboard-response","101","446598","0.0-15.0","5c519ec789254700019f7934","1982","<p> <br> Please be ready with your fingers on <b>s</b> and <b>k</b><br><br> <img class=keyboard src='images/examples/keyboard.png'> <br><br> <b> Press any key to begin</b></div>"," ","","","","","","","","","","","","","","",""
"html-keyboard-response","102","448619","0.0-16.0-0.0","5c519ec789254700019f7934","999","<img class=one_person src='images/persons/person5.jpg'><img class=product_left src='images/products/printer.jpg'><img class=product_right src='images/products/necklace.jpg'><div class=""fixation"">+</div>","s","","","","","","","","","","model_learning","learning_choice","24","0","",""
"html-keyboard-response","103","450128","0.0-16.0-1.0","5c519ec789254700019f7934","null","<img class=one_person src='images/persons/person5.jpg'><img class=product_left src='images/products/printer.jpg'><div class=""fixation"">Correct! you have 1 correct answers</div>","null","","","","","","","","","","model_learning","learning_result","24","","1","0"
"html-keyboard-response","104","451678","0.0-16.1-0.1","5c519ec789254700019f7934","1340","<img class=one_person src='images/persons/person1.jpg'><img class=product_left src='images/products/book.jpg'><img class=product_right src='images/products/printer.jpg'><div class=""fixation"">+</div>","s","","","","","","","","","","model_learning","learning_choice","25","0","",""
"html-keyboard-response","105","453194","0.0-16.1-1.1","5c519ec789254700019f7934","null","<img class=one_person src='images/persons/person1.jpg'><img class=product_left src='images/products/book.jpg'><div class=""fixation"">Correct! you have 2 correct answers</div>","null","","","","","","","","","","model_learning","learning_result","25","","2","0"
"html-keyboard-response","106","455033","0.0-16.2-0.2","5c519ec789254700019f7934","1631","<img class=one_person src='images/persons/person2.jpg'><img class=product_left src='images/products/book.jpg'><img class=product_right src='images/products/bicycle.jpg'><div class=""fixation"">+</div>","k","","","","","","","","","","model_learning","learning_choice","26","0","",""
"html-keyboard-response","107","456540","0.0-16.2-1.2","5c519ec789254700019f7934","null","<img class=one_person src='images/persons/person2.jpg'><img class=product_right src='images/products/bicycle.jpg'><div class=""fixation"">Incorrect</div>","null","","","","","","","","","","model_learning","learning_result","26","","2","1"
"html-keyboard-response","108","458005","0.0-16.3-0.3","5c519ec789254700019f7934","1251","<img class=one_person src='images/persons/person3.jpg'><img class=product_left src='images/products/necklace.jpg'><img class=product_right src='images/products/printer.jpg'><div class=""fixation"">+</div>","s","","","","","","","","","","model_learning","learning_choice","27","0","",""
"html-keyboard-response","109","459512","0.0-16.3-1.3","5c519ec789254700019f7934","null","<img class=one_person src='images/persons/person3.jpg'><img class=product_left src='images/products/necklace.jpg'><div class=""fixation"">Correct! you have 3 correct answers</div>","null","","","","","","","","","","model_learning","learning_result","27","","3","1"
"html-keyboard-response","110","462029","0.0-16.4-0.4","5c519ec789254700019f7934","2310","<img class=one_person src='images/persons/person4.jpg'><img class=product_left src='images/products/necklace.jpg'><img class=product_right src='images/products/bicycle.jpg'><div class=""fixation"">+</div>","s","","","","","","","","","","model_learning","learning_choice","28","0","",""
"html-keyboard-response","111","463544","0.0-16.4-1.4","5c519ec789254700019f7934","null","<img class=one_person src='images/persons/person4.jpg'><img class=product_left src='images/products/necklace.jpg'><div class=""fixation"">Correct! you have 4 correct answers</div>","null","","","","","","","","","","model_learning","learning_result","28","","4","1"
"html-keyboard-response","112","465709","0.0-16.5-0.5","5c519ec789254700019f7934","1955","<img class=one_person src='images/persons/person5.jpg'><img class=product_left src='images/products/bicycle.jpg'><img class=product_right src='images/products/cake.jpg'><div class=""fixation"">+</div>","s","","","","","","","","","","model_learning","learning_choice","29","0","",""
"html-keyboard-response","113","467214","0.0-16.5-1.5","5c519ec789254700019f7934","null","<img class=one_person src='images/persons/person5.jpg'><img class=product_left src='images/products/bicycle.jpg'><div class=""fixation"">Correct! you have 5 correct answers</div>","null","","","","","","","","","","model_learning","learning_result","29","","5","1"
"html-keyboard-response","114","469495","0.0-16.6-0.6","5c519ec789254700019f7934","2076","<img class=one_person src='images/persons/person1.jpg'><img class=product_left src='images/products/bicycle.jpg'><img class=product_right src='images/products/necklace.jpg'><div class=""fixation"">+</div>","s","","","","","","","","","","model_learning","learning_choice","30","0","",""
"html-keyboard-response","115","471002","0.0-16.6-1.6","5c519ec789254700019f7934","null","<img class=one_person src='images/persons/person1.jpg'><img class=product_left src='images/products/bicycle.jpg'><div class=""fixation"">Correct! you have 6 correct answers</div>","null","","","","","","","","","","model_learning","learning_result","30","","6","1"
"html-keyboard-response","116","472238","0.0-16.7-0.7","5c519ec789254700019f7934","1021","<img class=one_person src='images/persons/person2.jpg'><img class=product_right src='images/products/cake.jpg'><img class=product_left src='images/products/bicycle.jpg'><div class=""fixation"">+</div>","k","","","","","","","","","","model_learning","learning_choice","31","1","",""
"html-keyboard-response","117","473749","0.0-16.7-1.7","5c519ec789254700019f7934","null","<img class=one_person src='images/persons/person2.jpg'><img class=product_right src='images/products/cake.jpg'><div class=""fixation"">Correct! you have 7 correct answers</div>","null","","","","","","","","","","model_learning","learning_result","31","","7","1"
"html-keyboard-response","118","475620","0.0-16.8-0.8","5c519ec789254700019f7934","1654","<img class=one_person src='images/persons/person3.jpg'><img class=product_left src='images/products/cake.jpg'><img class=product_right src='images/products/bicycle.jpg'><div class=""fixation"">+</div>","s","","","","","","","","","","model_learning","learning_choice","32","0","",""
"html-keyboard-response","119","477135","0.0-16.8-1.8","5c519ec789254700019f7934","null","<img class=one_person src='images/persons/person3.jpg'><img class=product_left src='images/products/cake.jpg'><div class=""fixation"">Correct! you have 8 correct answers</div>","null","","","","","","","","","","model_learning","learning_result","32","","8","1"
"html-keyboard-response","120","478564","0.0-16.9-0.9","5c519ec789254700019f7934","1214","<img class=one_person src='images/persons/person4.jpg'><img class=product_left src='images/products/printer.jpg'><img class=product_right src='images/products/cake.jpg'><div class=""fixation"">+</div>","s","","","","","","","","","","model_learning","learning_choice","33","0","",""
"html-keyboard-response","121","480073","0.0-16.9-1.9","5c519ec789254700019f7934","null","<img class=one_person src='images/persons/person4.jpg'><img class=product_left src='images/products/printer.jpg'><div class=""fixation"">Correct! you have 9 correct answers</div>","null","","","","","","","","","","model_learning","learning_result","33","","9","1"
"html-keyboard-response","122","481755","0.0-16.10-0.10","5c519ec789254700019f7934","1470","<img class=one_person src='images/persons/person5.jpg'><img class=product_right src='images/products/printer.jpg'><img class=product_left src='images/products/necklace.jpg'><div class=""fixation"">+</div>","k","","","","","","","","","","model_learning","learning_choice","34","1","",""
"html-keyboard-response","123","483262","0.0-16.10-1.10","5c519ec789254700019f7934","null","<img class=one_person src='images/persons/person5.jpg'><img class=product_right src='images/products/printer.jpg'><div class=""fixation"">Correct! you have 10 correct answers</div>","null","","","","","","","","","","model_learning","learning_result","34","","10","1"
"html-keyboard-response","124","484329","0.0-16.11-0.11","5c519ec789254700019f7934","859","<img class=one_person src='images/persons/person1.jpg'><img class=product_left src='images/products/book.jpg'><img class=product_right src='images/products/printer.jpg'><div class=""fixation"">+</div>","s","","","","","","","","","","model_learning","learning_choice","35","0","",""
"html-keyboard-response","125","485844","0.0-16.11-1.11","5c519ec789254700019f7934","null","<img class=one_person src='images/persons/person1.jpg'><img class=product_left src='images/products/book.jpg'><div class=""fixation"">Correct! you have 11 correct answers</div>","null","","","","","","","","","","model_learning","learning_result","35","","11","1"
"html-keyboard-response","126","487225","0.0-16.12-0.12","5c519ec789254700019f7934","1173","<img class=one_person src='images/persons/person2.jpg'><img class=product_left src='images/products/book.jpg'><img class=product_right src='images/products/printer.jpg'><div class=""fixation"">+</div>","s","","","","","","","","","","model_learning","learning_choice","36","0","",""
"html-keyboard-response","127","488729","0.0-16.12-1.12","5c519ec789254700019f7934","null","<img class=one_person src='images/persons/person2.jpg'><img class=product_left src='images/products/book.jpg'><div class=""fixation"">Correct! you have 12 correct answers</div>","null","","","","","","","","","","model_learning","learning_result","36","","12","1"
"html-keyboard-response","128","489880","0.0-16.13-0.13","5c519ec789254700019f7934","945","<img class=one_person src='images/persons/person3.jpg'><img class=product_left src='images/products/necklace.jpg'><img class=product_right src='images/products/bicycle.jpg'><div class=""fixation"">+</div>","s","","","","","","","","","","model_learning","learning_choice","37","0","",""
"html-keyboard-response","129","491390","0.0-16.13-1.13","5c519ec789254700019f7934","null","<img class=one_person src='images/persons/person3.jpg'><img class=product_left src='images/products/necklace.jpg'><div class=""fixation"">Correct! you have 13 correct answers</div>","null","","","","","","","","","","model_learning","learning_result","37","","13","1"
"html-keyboard-response","130","493864","0.0-16.14-0.14","5c519ec789254700019f7934","2262","<img class=one_person src='images/persons/person4.jpg'><img class=product_left src='images/products/necklace.jpg'><img class=product_right src='images/products/cake.jpg'><div class=""fixation"">+</div>","s","","","","","","","","","","model_learning","learning_choice","38","0","",""
"html-keyboard-response","131","495377","0.0-16.14-1.14","5c519ec789254700019f7934","null","<img class=one_person src='images/persons/person4.jpg'><img class=product_left src='images/products/necklace.jpg'><div class=""fixation"">Correct! you have 14 correct answers</div>","null","","","","","","","","","","model_learning","learning_result","38","","14","1"
"html-keyboard-response","132","496769","0.0-16.15-0.15","5c519ec789254700019f7934","1186","<img class=one_person src='images/persons/person5.jpg'><img class=product_right src='images/products/bicycle.jpg'><img class=product_left src='images/products/necklace.jpg'><div class=""fixation"">+</div>","k","","","","","","","","","","model_learning","learning_choice","39","1","",""
"html-keyboard-response","133","498281","0.0-16.15-1.15","5c519ec789254700019f7934","null","<img class=one_person src='images/persons/person5.jpg'><img class=product_right src='images/products/bicycle.jpg'><div class=""fixation"">Correct! you have 15 correct answers</div>","null","","","","","","","","","","model_learning","learning_result","39","","15","1"
"html-keyboard-response","134","499238","0.0-16.16-0.16","5c519ec789254700019f7934","753","<img class=one_person src='images/persons/person1.jpg'><img class=product_right src='images/products/bicycle.jpg'><img class=product_left src='images/products/printer.jpg'><div class=""fixation"">+</div>","s","","","","","","","","","","model_learning","learning_choice","40","1","",""
"html-keyboard-response","135","500751","0.0-16.16-1.16","5c519ec789254700019f7934","null","<img class=one_person src='images/persons/person1.jpg'><img class=product_left src='images/products/printer.jpg'><div class=""fixation"">Incorrect</div>","null","","","","","","","","","","model_learning","learning_result","40","","15","2"
"html-keyboard-response","136","502040","0.0-16.17-0.17","5c519ec789254700019f7934","1076","<img class=one_person src='images/persons/person2.jpg'><img class=product_right src='images/products/cake.jpg'><img class=product_left src='images/products/necklace.jpg'><div class=""fixation"">+</div>","k","","","","","","","","","","model_learning","learning_choice","41","1","",""
"html-keyboard-response","137","503558","0.0-16.17-1.17","5c519ec789254700019f7934","null","<img class=one_person src='images/persons/person2.jpg'><img class=product_right src='images/products/cake.jpg'><div class=""fixation"">Correct! you have 16 correct answers</div>","null","","","","","","","","","","model_learning","learning_result","41","","16","2"
"html-keyboard-response","138","504882","0.0-16.18-0.18","5c519ec789254700019f7934","1115","<img class=one_person src='images/persons/person3.jpg'><img class=product_left src='images/products/cake.jpg'><img class=product_right src='images/products/bicycle.jpg'><div class=""fixation"">+</div>","s","","","","","","","","","","model_learning","learning_choice","42","0","",""
"html-keyboard-response","139","506391","0.0-16.18-1.18","5c519ec789254700019f7934","null","<img class=one_person src='images/persons/person3.jpg'><img class=product_left src='images/products/cake.jpg'><div class=""fixation"">Correct! you have 17 correct answers</div>","null","","","","","","","","","","model_learning","learning_result","42","","17","2"
"html-keyboard-response","140","508020","0.0-16.19-0.19","5c519ec789254700019f7934","1418","<img class=one_person src='images/persons/person4.jpg'><img class=product_left src='images/products/printer.jpg'><img class=product_right src='images/products/bicycle.jpg'><div class=""fixation"">+</div>","s","","","","","","","","","","model_learning","learning_choice","43","0","",""
"html-keyboard-response","141","509527","0.0-16.19-1.19","5c519ec789254700019f7934","null","<img class=one_person src='images/persons/person4.jpg'><img class=product_left src='images/products/printer.jpg'><div class=""fixation"">Correct! you have 18 correct answers</div>","null","","","","","","","","","","model_learning","learning_result","43","","18","2"
"html-keyboard-response","142","511179","0.0-16.20-0.20","5c519ec789254700019f7934","1441","<img class=one_person src='images/persons/person5.jpg'><img class=product_right src='images/products/printer.jpg'><img class=product_left src='images/products/cake.jpg'><div class=""fixation"">+</div>","k","","","","","","","","","","model_learning","learning_choice","44","1","",""
"html-keyboard-response","143","512694","0.0-16.20-1.20","5c519ec789254700019f7934","null","<img class=one_person src='images/persons/person5.jpg'><img class=product_right src='images/products/printer.jpg'><div class=""fixation"">Correct! you have 19 correct answers</div>","null","","","","","","","","","","model_learning","learning_result","44","","19","2"
"html-keyboard-response","144","514258","0.0-16.21-0.21","5c519ec789254700019f7934","1358","<img class=one_person src='images/persons/person1.jpg'><img class=product_left src='images/products/book.jpg'><img class=product_right src='images/products/necklace.jpg'><div class=""fixation"">+</div>","s","","","","","","","","","","model_learning","learning_choice","45","0","",""
"html-keyboard-response","145","515769","0.0-16.21-1.21","5c519ec789254700019f7934","null","<img class=one_person src='images/persons/person1.jpg'><img class=product_left src='images/products/book.jpg'><div class=""fixation"">Correct! you have 20 correct answers</div>","null","","","","","","","","","","model_learning","learning_result","45","","20","2"
"instructions","146","534326","0.0-17.0","5c519ec789254700019f7934","18344","","","","","","","","[{""page_index"":0,""viewing_time"":3002},{""page_index"":1,""viewing_time"":7123},{""page_index"":2,""viewing_time"":3447},{""page_index"":3,""viewing_time"":1552},{""page_index"":4,""viewing_time"":3220}]","","","","","","","","",""
"instructions","147","546478","0.0-18.0","5c519ec789254700019f7934","12149","","","","","","","","[{""page_index"":0,""viewing_time"":1371},{""page_index"":1,""viewing_time"":3546},{""page_index"":2,""viewing_time"":1544},{""page_index"":3,""viewing_time"":2189},{""page_index"":4,""viewing_time"":1898},{""page_index"":5,""viewing_time"":1600}]","","","","","","","","",""
"html-keyboard-response","148","548182","0.0-19.0","5c519ec789254700019f7934","1699","<p> <br> Please be ready with your fingers on <b>s</b> and <b>k</b><br><br> <img class=keyboard src='images/examples/keyboard.png'> <br><br> <b> Press any key to begin</b></div>"," ","","","","","","","","","","","","","","",""
"html-keyboard-response","149","550295","0.0-20.0-0.0","5c519ec789254700019f7934","1102","<img class=one_product src='images/products/book.jpg'><img class=left_person_reverse src='images/persons/person1.jpg'><img class=right_person_reverse src='images/persons/person4.jpg'><div class=""fixation"">+</div>","s","","","","","","","","","","model_learning","learning_choice","46","0","",""
"html-keyboard-response","150","551806","0.0-20.0-1.0","5c519ec789254700019f7934","null","<img class=one_product src='images/products/book.jpg'><img class=left_person_reverse src='images/persons/person1.jpg'><div class=""fixation"">Correct! you have 1 correct answers</div>","null","","","","","","","","","","model_learning","learning_result","46","","1","0"
"html-keyboard-response","151","552818","0.0-20.1-0.1","5c519ec789254700019f7934","807","<img class=one_product src='images/products/cake.jpg'><img class=left_person_reverse src='images/persons/person3.jpg'><img class=right_person_reverse src='images/persons/person4.jpg'><div class=""fixation"">+</div>","s","","","","","","","","","","model_learning","learning_choice","47","0","",""
"html-keyboard-response","152","554326","0.0-20.1-1.1","5c519ec789254700019f7934","null","<img class=one_product src='images/products/cake.jpg'><img class=left_person_reverse src='images/persons/person3.jpg'><div class=""fixation"">Correct! you have 2 correct answers</div>","null","","","","","","","","","","model_learning","learning_result","47","","2","0"
"html-keyboard-response","153","555909","0.0-20.2-0.2","5c519ec789254700019f7934","1379","<img class=one_product src='images/products/necklace.jpg'><img class=left_person_reverse src='images/persons/person3.jpg'><img class=right_person_reverse src='images/persons/person5.jpg'><div class=""fixation"">+</div>","s","","","","","","","","","","model_learning","learning_choice","48","0","",""
"html-keyboard-response","154","557417","0.0-20.2-1.2","5c519ec789254700019f7934","null","<img class=one_product src='images/products/necklace.jpg'><img class=left_person_reverse src='images/persons/person3.jpg'><div class=""fixation"">Correct! you have 3 correct answers</div>","null","","","","","","","","","","model_learning","learning_result","48","","3","0"
"html-keyboard-response","155","558643","0.0-20.3-0.3","5c519ec789254700019f7934","1012","<img class=one_product src='images/products/printer.jpg'><img class=right_person_reverse src='images/persons/person5.jpg'><img class=left_person_reverse src='images/persons/person3.jpg'><div class=""fixation"">+</div>","k","","","","","","","","","","model_learning","learning_choice","49","1","",""
"html-keyboard-response","156","560153","0.0-20.3-1.3","5c519ec789254700019f7934","null","<img class=one_product src='images/products/printer.jpg'><img class=right_person_reverse src='images/persons/person5.jpg'><div class=""fixation"">Correct! you have 4 correct answers</div>","null","","","","","","","","","","model_learning","learning_result","49","","4","0"
"html-keyboard-response","157","561935","0.0-20.4-0.4","5c519ec789254700019f7934","1570","<img class=one_product src='images/products/bicycle.jpg'><img class=left_person_reverse src='images/persons/person1.jpg'><img class=right_person_reverse src='images/persons/person4.jpg'><div class=""fixation"">+</div>","s","","","","","","","","","","model_learning","learning_choice","50","0","",""
"html-keyboard-response","158","563438","0.0-20.4-1.4","5c519ec789254700019f7934","null","<img class=one_product src='images/products/bicycle.jpg'><img class=left_person_reverse src='images/persons/person1.jpg'><div class=""fixation"">Correct! you have 5 correct answers</div>","null","","","","","","","","","","model_learning","learning_result","50","","5","0"
"html-keyboard-response","159","565921","0.0-20.5-0.5","5c519ec789254700019f7934","2273","<img class=one_product src='images/products/book.jpg'><img class=right_person_reverse src='images/persons/person2.jpg'><img class=left_person_reverse src='images/persons/person4.jpg'><div class=""fixation"">+</div>","s","","","","","","","","","","model_learning","learning_choice","51","1","",""
"html-keyboard-response","160","567425","0.0-20.5-1.5","5c519ec789254700019f7934","null","<img class=one_product src='images/products/book.jpg'><img class=left_person_reverse src='images/persons/person4.jpg'><div class=""fixation"">Incorrect</div>","null","","","","","","","","","","model_learning","learning_result","51","","5","1"
"html-keyboard-response","161","568946","0.0-20.6-0.6","5c519ec789254700019f7934","1315","<img class=one_product src='images/products/cake.jpg'><img class=left_person_reverse src='images/persons/person2.jpg'><img class=right_person_reverse src='images/persons/person1.jpg'><div class=""fixation"">+</div>","s","","","","","","","","","","model_learning","learning_choice","52","0","",""
"html-keyboard-response","162","570456","0.0-20.6-1.6","5c519ec789254700019f7934","null","<img class=one_product src='images/products/cake.jpg'><img class=left_person_reverse src='images/persons/person2.jpg'><div class=""fixation"">Correct! you have 6 correct answers</div>","null","","","","","","","","","","model_learning","learning_result","52","","6","1"
"html-keyboard-response","163","572710","0.0-20.7-0.7","5c519ec789254700019f7934","2042","<img class=one_product src='images/products/necklace.jpg'><img class=left_person_reverse src='images/persons/person4.jpg'><img class=right_person_reverse src='images/persons/person2.jpg'><div class=""fixation"">+</div>","s","","","","","","","","","","model_learning","learning_choice","53","0","",""
"html-keyboard-response","164","574223","0.0-20.7-1.7","5c519ec789254700019f7934","null","<img class=one_product src='images/products/necklace.jpg'><img class=left_person_reverse src='images/persons/person4.jpg'><div class=""fixation"">Correct! you have 7 correct answers</div>","null","","","","","","","","","","model_learning","learning_result","53","","7","1"
"html-keyboard-response","165","576550","0.0-20.8-0.8","5c519ec789254700019f7934","2121","<img class=one_product src='images/products/printer.jpg'><img class=right_person_reverse src='images/persons/person4.jpg'><img class=left_person_reverse src='images/persons/person3.jpg'><div class=""fixation"">+</div>","k","","","","","","","","","","model_learning","learning_choice","54","1","",""
"html-keyboard-response","166","578055","0.0-20.8-1.8","5c519ec789254700019f7934","null","<img class=one_product src='images/products/printer.jpg'><img class=right_person_reverse src='images/persons/person4.jpg'><div class=""fixation"">Correct! you have 8 correct answers</div>","null","","","","","","","","","","model_learning","learning_result","54","","8","1"
"html-keyboard-response","167","579188","0.0-20.9-0.9","5c519ec789254700019f7934","924","<img class=one_product src='images/products/bicycle.jpg'><img class=left_person_reverse src='images/persons/person5.jpg'><img class=right_person_reverse src='images/persons/person3.jpg'><div class=""fixation"">+</div>","s","","","","","","","","","","model_learning","learning_choice","55","0","",""
"html-keyboard-response","168","580704","0.0-20.9-1.9","5c519ec789254700019f7934","null","<img class=one_product src='images/products/bicycle.jpg'><img class=left_person_reverse src='images/persons/person5.jpg'><div class=""fixation"">Correct! you have 9 correct answers</div>","null","","","","","","","","","","model_learning","learning_result","55","","9","1"
"html-keyboard-response","169","582023","0.0-20.10-0.10","5c519ec789254700019f7934","1109","<img class=one_product src='images/products/book.jpg'><img class=left_person_reverse src='images/persons/person1.jpg'><img class=right_person_reverse src='images/persons/person3.jpg'><div class=""fixation"">+</div>","s","","","","","","","","","","model_learning","learning_choice","56","0","",""
"html-keyboard-response","170","583538","0.0-20.10-1.10","5c519ec789254700019f7934","null","<img class=one_product src='images/products/book.jpg'><img class=left_person_reverse src='images/persons/person1.jpg'><div class=""fixation"">Correct! you have 10 correct answers</div>","null","","","","","","","","","","model_learning","learning_result","56","","10","1"
"html-keyboard-response","171","584857","0.0-20.11-0.11","5c519ec789254700019f7934","1109","<img class=one_product src='images/products/cake.jpg'><img class=right_person_reverse src='images/persons/person3.jpg'><img class=left_person_reverse src='images/persons/person4.jpg'><div class=""fixation"">+</div>","k","","","","","","","","","","model_learning","learning_choice","57","1","",""
"html-keyboard-response","172","586373","0.0-20.11-1.11","5c519ec789254700019f7934","null","<img class=one_product src='images/products/cake.jpg'><img class=right_person_reverse src='images/persons/person3.jpg'><div class=""fixation"">Correct! you have 11 correct answers</div>","null","","","","","","","","","","model_learning","learning_result","57","","11","1"
"html-keyboard-response","173","587837","0.0-20.12-0.12","5c519ec789254700019f7934","1256","<img class=one_product src='images/products/necklace.jpg'><img class=left_person_reverse src='images/persons/person3.jpg'><img class=right_person_reverse src='images/persons/person5.jpg'><div class=""fixation"">+</div>","s","","","","","","","","","","model_learning","learning_choice","58","0","",""
"html-keyboard-response","174","589354","0.0-20.12-1.12","5c519ec789254700019f7934","null","<img class=one_product src='images/products/necklace.jpg'><img class=left_person_reverse src='images/persons/person3.jpg'><div class=""fixation"">Correct! you have 12 correct answers</div>","null","","","","","","","","","","model_learning","learning_result","58","","12","1"
"html-keyboard-response","175","590487","0.0-20.13-0.13","5c519ec789254700019f7934","922","<img class=one_product src='images/products/printer.jpg'><img class=left_person_reverse src='images/persons/person5.jpg'><img class=right_person_reverse src='images/persons/person3.jpg'><div class=""fixation"">+</div>","s","","","","","","","","","","model_learning","learning_choice","59","0","",""
"html-keyboard-response","176","592006","0.0-20.13-1.13","5c519ec789254700019f7934","null","<img class=one_product src='images/products/printer.jpg'><img class=left_person_reverse src='images/persons/person5.jpg'><div class=""fixation"">Correct! you have 13 correct answers</div>","null","","","","","","","","","","model_learning","learning_result","59","","13","1"
"html-keyboard-response","177","593705","0.0-20.14-0.14","5c519ec789254700019f7934","1491","<img class=one_product src='images/products/bicycle.jpg'><img class=right_person_reverse src='images/persons/person1.jpg'><img class=left_person_reverse src='images/persons/person2.jpg'><div class=""fixation"">+</div>","k","","","","","","","","","","model_learning","learning_choice","60","1","",""
"html-keyboard-response","178","595224","0.0-20.14-1.14","5c519ec789254700019f7934","null","<img class=one_product src='images/products/bicycle.jpg'><img class=right_person_reverse src='images/persons/person1.jpg'><div class=""fixation"">Correct! you have 14 correct answers</div>","null","","","","","","","","","","model_learning","learning_result","60","","14","1"
"html-keyboard-response","179","596976","0.0-20.15-0.15","5c519ec789254700019f7934","1543","<img class=one_product src='images/products/book.jpg'><img class=right_person_reverse src='images/persons/person2.jpg'><img class=left_person_reverse src='images/persons/person5.jpg'><div class=""fixation"">+</div>","k","","","","","","","","","","model_learning","learning_choice","61","1","",""
"html-keyboard-response","180","598492","0.0-20.15-1.15","5c519ec789254700019f7934","null","<img class=one_product src='images/products/book.jpg'><img class=right_person_reverse src='images/persons/person2.jpg'><div class=""fixation"">Correct! you have 15 correct answers</div>","null","","","","","","","","","","model_learning","learning_result","61","","15","1"
"html-keyboard-response","181","599714","0.0-20.16-0.16","5c519ec789254700019f7934","1015","<img class=one_product src='images/products/cake.jpg'><img class=left_person_reverse src='images/persons/person2.jpg'><img class=right_person_reverse src='images/persons/person5.jpg'><div class=""fixation"">+</div>","s","","","","","","","","","","model_learning","learning_choice","62","0","",""
"html-keyboard-response","182","601225","0.0-20.16-1.16","5c519ec789254700019f7934","null","<img class=one_product src='images/products/cake.jpg'><img class=left_person_reverse src='images/persons/person2.jpg'><div class=""fixation"">Correct! you have 16 correct answers</div>","null","","","","","","","","","","model_learning","learning_result","62","","16","1"
"html-keyboard-response","183","603242","0.0-20.17-0.17","5c519ec789254700019f7934","1811","<img class=one_product src='images/products/necklace.jpg'><img class=left_person_reverse src='images/persons/person4.jpg'><img class=right_person_reverse src='images/persons/person1.jpg'><div class=""fixation"">+</div>","k","","","","","","","","","","model_learning","learning_choice","63","0","",""
"html-keyboard-response","184","604756","0.0-20.17-1.17","5c519ec789254700019f7934","null","<img class=one_product src='images/products/necklace.jpg'><img class=right_person_reverse src='images/persons/person1.jpg'><div class=""fixation"">Incorrect</div>","null","","","","","","","","","","model_learning","learning_result","63","","16","2"
"html-keyboard-response","185","606239","0.0-20.18-0.18","5c519ec789254700019f7934","1273","<img class=one_product src='images/products/printer.jpg'><img class=right_person_reverse src='images/persons/person4.jpg'><img class=left_person_reverse src='images/persons/person3.jpg'><div class=""fixation"">+</div>","k","","","","","","","","","","model_learning","learning_choice","64","1","",""
"html-keyboard-response","186","607750","0.0-20.18-1.18","5c519ec789254700019f7934","null","<img class=one_product src='images/products/printer.jpg'><img class=right_person_reverse src='images/persons/person4.jpg'><div class=""fixation"">Correct! you have 17 correct answers</div>","null","","","","","","","","","","model_learning","learning_result","64","","17","2"
"html-keyboard-response","187","609208","0.0-20.19-0.19","5c519ec789254700019f7934","1241","<img class=one_product src='images/products/bicycle.jpg'><img class=left_person_reverse src='images/persons/person5.jpg'><img class=right_person_reverse src='images/persons/person4.jpg'><div class=""fixation"">+</div>","s","","","","","","","","","","model_learning","learning_choice","65","0","",""
"html-keyboard-response","188","610728","0.0-20.19-1.19","5c519ec789254700019f7934","null","<img class=one_product src='images/products/bicycle.jpg'><img class=left_person_reverse src='images/persons/person5.jpg'><div class=""fixation"">Correct! you have 18 correct answers</div>","null","","","","","","","","","","model_learning","learning_result","65","","18","2"
"html-keyboard-response","189","613616","0.0-20.20-0.20","5c519ec789254700019f7934","2683","<img class=one_product src='images/products/book.jpg'><img class=right_person_reverse src='images/persons/person1.jpg'><img class=left_person_reverse src='images/persons/person5.jpg'><div class=""fixation"">+</div>","k","","","","","","","","","","model_learning","learning_choice","66","1","",""
"html-keyboard-response","190","615125","0.0-20.20-1.20","5c519ec789254700019f7934","null","<img class=one_product src='images/products/book.jpg'><img class=right_person_reverse src='images/persons/person1.jpg'><div class=""fixation"">Correct! you have 19 correct answers</div>","null","","","","","","","","","","model_learning","learning_result","66","","19","2"
"html-keyboard-response","191","616155","0.0-20.21-0.21","5c519ec789254700019f7934","822","<img class=one_product src='images/products/cake.jpg'><img class=left_person_reverse src='images/persons/person3.jpg'><img class=right_person_reverse src='images/persons/person1.jpg'><div class=""fixation"">+</div>","s","","","","","","","","","","model_learning","learning_choice","67","0","",""
"html-keyboard-response","192","617662","0.0-20.21-1.21","5c519ec789254700019f7934","null","<img class=one_product src='images/products/cake.jpg'><img class=left_person_reverse src='images/persons/person3.jpg'><div class=""fixation"">Correct! you have 20 correct answers</div>","null","","","","","","","","","","model_learning","learning_result","67","","20","2"
"html-button-response","193","628665","0.0-21.0","5c519ec789254700019f7934","10779","<p><b>Congratulations!</b> <br><br> You succesfully finished day 1 out of 2 in your training of which products each delivery person delivers. Tomorrow you will complete your training and then move on to the main task in the remaining two days. <br> <b>REMEMBER:</b> You will be paid only after completing all four days of the task. <br>","0","","","","","","","","","","","","","","",""
